ID	Block	Trials	Practice	VideoStart	ITI	ITI_measured	Color	Conflict	Global	Local	Task	Video_pos	Video_dist	Video_present	Video_cat_cond	Video_cat	Video	VideoPlayed	VideoCheck	RT	DT	Visits	KeyPress	KeyColor	Correct	Reward	RewardCond
400	1	1	1	none	0.5	0.804741	yellow	1	down	down	GLO	right	far	0	intact	none	none	0	0	0.622557	0	1	left	yellow	1	0	0
400	1	2	1	none	0.5	0.516908	green	0	right	right	GLO	right	close	0	intact	none	none	0	0	3.29919	0	1	right	green	1	0	0
400	1	3	1	none	0.5	0.516878	red	1	right	right	GLO	right	far	0	intact	none	none	0	0	1.42852	0	1	down	red	1	0	0
400	1	4	1	none	0.5	0.517089	green	1	up	up	GLO	left	close	0	intact	none	none	0	0	0.963654	0	1	left	yellow	0	0	0
400	1	5	1	none	0.5	0.516659	green	0	right	right	GLO	left	far	0	intact	none	none	0	0	0.693836	0	1	right	green	1	0	0
400	1	6	1	none	0.5	0.516355	yellow	1	right	right	GLO	left	far	0	intact	none	none	0	0	0.483811	0	1	left	yellow	1	0	0
400	1	7	1	none	0.5	0.515934	blue	1	down	down	GLO	left	close	0	intact	none	none	0	0	1.15083	0	1	up	blue	1	0	0
400	1	8	1	none	0.5	0.516035	green	1	left	left	GLO	left	close	0	intact	none	none	0	0	0.915467	0	1	right	green	1	0	0
400	1	9	1	none	0.5	0.515914	yellow	1	down	down	GLO	right	close	0	intact	none	none	0	0	0.973964	0	1	left	yellow	1	0	0
400	1	10	1	none	0.5	0.516201	blue	0	up	up	GLO	left	far	0	intact	none	none	0	0	0.828022	0	1	up	blue	1	0	0
400	1	11	1	none	0.5	0.515852	yellow	0	left	left	GLO	right	close	0	intact	none	none	0	0	1.5348	0	1	left	yellow	1	0	0
400	1	12	1	none	0.5	0.515856	yellow	1	up	up	GLO	left	close	0	intact	none	none	0	0	0.683482	0	1	left	yellow	1	0	0
400	1	13	1	none	0.5	0.516344	green	1	left	left	GLO	right	close	0	intact	none	none	0	0	0.800374	0	1	right	green	1	0	0
400	1	14	1	none	0.5	0.516439	yellow	0	left	left	GLO	right	far	0	intact	none	none	0	0	0.631353	0	1	left	yellow	1	0	0
400	1	15	1	none	0.5	0.516494	red	0	down	down	GLO	right	far	0	intact	none	none	0	0	0.98388	0	1	down	red	1	0	0
400	1	16	1	none	0.5	0.516156	red	1	right	right	GLO	left	close	0	intact	none	none	0	0	0.595323	0	1	down	red	1	0	0
400	1	17	1	none	0.5	0.51716	red	1	left	left	GLO	left	far	0	intact	none	none	0	0	0.616717	0	1	down	red	1	0	0
400	1	18	1	none	0.5	0.516177	red	0	down	down	GLO	right	close	0	intact	none	none	0	0	0.516369	0	1	down	red	1	0	0
400	1	19	1	none	0.5	0.517067	green	1	left	left	GLO	left	close	0	intact	none	none	0	0	0.968298	0	1	right	green	1	0	0
400	1	20	1	none	0.5	0.516868	green	1	left	left	GLO	left	far	0	intact	none	none	0	0	0.682485	0	1	right	green	1	0	0
400	1	21	1	none	0.5	0.516402	yellow	1	up	up	GLO	right	close	0	intact	none	none	0	0	0.510139	0	1	left	yellow	1	0	0
400	1	22	1	none	0.5	0.516729	red	1	up	up	GLO	left	close	0	intact	none	none	0	0	1.56139	0	1	up	blue	0	0	0
400	1	23	1	none	0.5	0.516802	yellow	0	left	left	GLO	left	far	0	intact	none	none	0	0	0.683026	0	1	right	green	0	0	0
400	1	24	1	none	0.5	0.516533	green	1	down	down	GLO	right	far	0	intact	none	none	0	0	0.748581	0	1	right	green	1	0	0
400	1	25	1	none	0.5	0.516018	red	0	down	down	GLO	left	far	0	intact	none	none	0	0	1.40036	0	1	up	blue	0	0	0
400	1	26	1	none	0.5	0.516153	yellow	1	down	down	GLO	left	far	0	intact	none	none	0	0	0.717297	0	1	left	yellow	1	0	0
400	1	27	1	none	0.5	0.517146	yellow	1	down	down	GLO	left	close	0	intact	none	none	0	0	0.530582	0	1	left	yellow	1	0	0
400	1	28	1	none	0.5	0.516915	yellow	0	left	left	GLO	left	close	0	intact	none	none	0	0	0.517053	0	1	left	yellow	1	0	0
400	1	29	1	none	0.5	0.517458	yellow	1	down	down	GLO	left	close	0	intact	none	none	0	0	0.632771	0	1	left	yellow	1	0	0
400	1	30	1	none	0.5	0.51743	green	1	up	up	GLO	left	far	0	intact	none	none	0	0	0.796677	0	1	right	green	1	0	0
400	1	31	1	none	0.5	0.517198	blue	1	down	down	GLO	right	far	0	intact	none	none	0	0	0.895158	0	1	up	blue	1	0	0
400	1	32	1	none	0.5	0.516999	red	0	down	down	GLO	left	close	0	intact	none	none	0	0	0.796215	0	1	down	red	1	0	0
400	1	33	1	none	0.5	0.517174	blue	0	up	up	GLO	right	far	0	intact	none	none	0	0	0.477745	0	1	up	blue	1	0	0
400	1	34	1	none	0.5	0.51624	yellow	1	up	up	GLO	right	close	0	intact	none	none	0	0	0.966996	0	1	left	yellow	1	0	0
400	1	35	1	none	0.5	0.516841	green	0	right	right	GLO	right	far	0	intact	none	none	0	0	0.550652	0	1	right	green	1	0	0
400	1	36	1	none	0.5	0.516328	green	1	down	down	GLO	right	close	0	intact	none	none	0	0	0.784009	0	1	right	green	1	0	0
400	1	37	1	none	0.5	0.516351	red	0	down	down	GLO	right	far	0	intact	none	none	0	0	1.10019	0	1	down	red	1	0	0
400	1	38	1	none	0.5	0.516803	yellow	1	up	up	GLO	right	close	0	intact	none	none	0	0	0.650284	0	1	left	yellow	1	0	0
400	1	39	1	none	0.5	0.516671	blue	1	right	right	GLO	right	far	0	intact	none	none	0	0	0.600534	0	1	up	blue	1	0	0
400	1	40	1	none	0.5	0.51656	green	1	left	left	GLO	left	far	0	intact	none	none	0	0	0.799887	0	1	right	green	1	0	0
400	1	41	1	none	0.5	0.516139	green	0	right	right	GLO	left	close	0	intact	none	none	0	0	0.509033	0	1	right	green	1	0	0
400	1	42	1	none	0.5	0.517713	red	1	right	right	GLO	right	close	0	intact	none	none	0	0	0.982514	0	1	down	red	1	0	0
400	1	43	1	none	0.5	0.515712	blue	1	left	left	GLO	right	close	0	intact	none	none	0	0	0.450036	0	1	up	blue	1	0	0
400	1	44	1	none	0.5	0.516599	green	0	right	right	GLO	right	close	0	intact	none	none	0	0	0.750978	0	1	left	yellow	0	0	0
400	1	45	1	none	0.5	0.516385	yellow	1	right	right	GLO	left	far	0	intact	none	none	0	0	0.61666	0	1	left	yellow	1	0	0
400	1	46	1	none	0.5	0.516854	blue	1	down	down	GLO	left	close	0	intact	none	none	0	0	1.48402	0	1	up	blue	1	0	0
400	1	47	1	none	0.5	0.517072	yellow	0	left	left	GLO	right	far	0	intact	none	none	0	0	1.41398	0	1	left	yellow	1	0	0
400	1	48	1	none	0.5	0.517079	yellow	0	left	left	GLO	right	close	0	intact	none	none	0	0	0.467867	0	1	left	yellow	1	0	0
400	1	49	1	none	0.5	0.516213	green	0	right	right	GLO	left	close	0	intact	none	none	0	0	0.567027	0	1	right	green	1	0	0
400	1	50	1	none	0.5	0.517391	red	1	right	right	GLO	right	far	0	intact	none	none	0	0	1.1664	0	1	down	red	1	0	0
400	1	51	1	none	0.5	0.516544	blue	0	up	up	GLO	left	far	0	intact	none	none	0	0	0.640161	0	1	up	blue	1	0	0
400	1	52	1	none	0.5	0.517209	yellow	0	left	left	GLO	right	far	0	intact	none	none	0	0	0.765701	0	1	left	yellow	1	0	0
400	1	53	1	none	0.5	0.516559	red	0	down	down	GLO	right	close	0	intact	none	none	0	0	1.85034	0	1	down	red	1	0	0
400	1	54	1	none	0.5	0.516556	red	1	right	right	GLO	right	far	0	intact	none	none	0	0	0.433678	0	1	down	red	1	0	0
400	1	55	1	none	0.5	0.516128	red	0	down	down	GLO	right	close	0	intact	none	none	0	0	0.533975	0	1	down	red	1	0	0
400	1	56	1	none	0.5	0.516926	blue	1	right	right	GLO	right	close	0	intact	none	none	0	0	0.706883	0	1	up	blue	1	0	0
400	1	57	1	none	1.5	1.51707	yellow	1	right	right	GLO	left	far	0	intact	none	none	0	0	0.725242	0	1	left	yellow	1	0	0
400	1	58	1	none	1.5	1.51745	red	0	down	down	GLO	right	far	0	intact	none	none	0	0	0.966228	0	1	down	red	1	0	0
400	1	59	1	none	1.5	1.5173	blue	0	up	up	GLO	right	close	0	intact	none	none	0	0	0.666832	0	1	up	blue	1	0	0
400	1	60	1	none	1.5	1.51656	red	0	down	down	GLO	right	far	0	intact	none	none	0	0	1.87593	0	1	down	red	1	0	0
400	1	61	1	none	1.5	1.51767	blue	0	up	up	GLO	left	far	0	intact	none	none	0	0	0.666975	0	1	up	blue	1	0	0
400	1	62	1	none	1.5	1.51724	yellow	1	down	down	GLO	left	far	0	intact	none	none	0	0	1.21682	0	1	left	yellow	1	0	0
400	1	63	1	none	1.5	1.51647	red	1	right	right	GLO	left	close	0	intact	none	none	0	0	0.783857	0	1	right	green	0	0	0
400	1	64	1	none	1.5	1.51695	blue	1	right	right	GLO	right	far	0	intact	none	none	0	0	1.01596	0	1	up	blue	1	0	0
400	1	65	1	none	1.5	1.516	yellow	0	left	left	GLO	left	close	0	intact	none	none	0	0	2.76664	0	1	left	yellow	1	0	0
400	1	66	1	none	1.5	1.51626	green	1	up	up	GLO	left	close	0	intact	none	none	0	0	0.56208	0	1	right	green	1	0	0
400	1	67	1	none	1.5	1.51764	blue	0	up	up	GLO	left	far	0	intact	none	none	0	0	1.00848	0	1	down	red	0	0	0
400	1	68	1	none	1.5	1.51576	yellow	0	left	left	GLO	right	close	0	intact	none	none	0	0	0.817346	0	1	left	yellow	1	0	0
400	1	69	1	none	1.5	1.51669	red	0	down	down	GLO	left	close	0	intact	none	none	0	0	1.51698	0	1	down	red	1	0	0
400	1	70	1	none	1.5	1.51631	yellow	0	left	left	GLO	right	close	0	intact	none	none	0	0	0.666555	0	1	left	yellow	1	0	0
400	1	71	1	none	1.5	1.51612	blue	0	up	up	GLO	left	close	0	intact	none	none	0	0	0.917262	0	1	up	blue	1	0	0
400	1	72	1	none	1.5	1.5162	yellow	0	left	left	GLO	right	far	0	intact	none	none	0	0	1.06326	0	1	left	yellow	1	0	0
400	1	73	1	none	1.5	1.51626	green	1	down	down	GLO	right	close	0	intact	none	none	0	0	0.484175	0	1	right	green	1	0	0
400	1	74	1	none	1.5	1.51706	red	0	down	down	GLO	left	far	0	intact	none	none	0	0	1.48282	0	1	down	red	1	0	0
400	1	75	1	none	1.5	1.51672	green	0	right	right	GLO	left	far	0	intact	none	none	0	0	2.52494	0	1	right	green	1	0	0
400	1	76	1	none	1.5	1.51669	red	0	down	down	GLO	right	far	0	intact	none	none	0	0	0.649736	0	1	down	red	1	0	0
400	1	77	1	none	1.5	1.51661	red	0	down	down	GLO	right	far	0	intact	none	none	0	0	0.566764	0	1	down	red	1	0	0
400	1	78	1	none	1.5	1.51651	yellow	1	up	up	GLO	right	far	0	intact	none	none	0	0	1.16726	0	1	left	yellow	1	0	0
400	1	79	1	none	1.5	1.5162	yellow	0	left	left	GLO	right	close	0	intact	none	none	0	0	0.53317	0	1	left	yellow	1	0	0
400	1	80	1	none	1.5	1.51649	red	1	up	up	GLO	left	far	0	intact	none	none	0	0	1.25016	0	1	down	red	1	0	0
400	1	81	1	none	1.5	1.51575	yellow	0	left	left	GLO	left	close	0	intact	none	none	0	0	0.766076	0	1	down	red	0	0	0
400	1	82	1	none	1.5	1.51612	yellow	0	left	left	GLO	left	close	0	intact	none	none	0	0	0.646468	0	1	left	yellow	1	0	0
400	1	83	1	none	1.5	1.51613	red	0	down	down	GLO	right	far	0	intact	none	none	0	0	1.05051	0	1	down	red	1	0	0
400	1	84	1	none	1.5	1.51624	yellow	0	left	left	GLO	right	close	0	intact	none	none	0	0	1.04705	0	1	left	yellow	1	0	0
400	1	85	1	none	1.5	1.51637	blue	1	left	left	GLO	right	far	0	intact	none	none	0	0	0.830281	0	1	up	blue	1	0	0
400	1	86	1	none	1.5	1.51718	green	0	right	right	GLO	right	close	0	intact	none	none	0	0	0.966184	0	1	right	green	1	0	0
400	1	87	1	none	1.5	1.51622	yellow	1	right	right	GLO	right	close	0	intact	none	none	0	0	1.08373	0	1	left	yellow	1	0	0
400	1	88	1	none	1.5	1.51691	blue	0	up	up	GLO	right	far	0	intact	none	none	0	0	2.44998	0	1	up	blue	1	0	0
400	1	89	1	none	1.5	NaN	red	0	down	down	GLO	none	far	0	intact	none	none	0	0	NaN	NaN	NaN	none	none	NaN	0	0
400	1	90	1	none	1.5	NaN	red	0	down	down	GLO	none	far	0	intact	none	none	0	0	NaN	NaN	NaN	none	none	NaN	0	0
400	1	91	1	none	1.5	NaN	blue	1	left	left	GLO	none	close	0	intact	none	none	0	0	NaN	NaN	NaN	none	none	NaN	0	0
400	1	92	1	none	1.5	NaN	blue	1	right	right	GLO	none	far	0	intact	none	none	0	0	NaN	NaN	NaN	none	none	NaN	0	0
400	1	93	1	none	1.5	NaN	red	1	left	left	GLO	none	close	0	intact	none	none	0	0	NaN	NaN	NaN	none	none	NaN	0	0
400	1	94	1	none	1.5	NaN	blue	0	up	up	GLO	none	close	0	intact	none	none	0	0	NaN	NaN	NaN	none	none	NaN	0	0
400	1	95	1	none	1.5	NaN	red	1	left	left	GLO	none	close	0	intact	none	none	0	0	NaN	NaN	NaN	none	none	NaN	0	0
400	1	96	1	none	1.5	NaN	green	1	left	left	GLO	none	close	0	intact	none	none	0	0	NaN	NaN	NaN	none	none	NaN	0	0
400	1	97	1	none	1.5	NaN	blue	0	up	up	GLO	none	close	0	intact	none	none	0	0	NaN	NaN	NaN	none	none	NaN	0	0
400	1	98	1	none	1.5	NaN	blue	0	up	up	GLO	none	far	0	intact	none	none	0	0	NaN	NaN	NaN	none	none	NaN	0	0
400	1	99	1	none	1.5	NaN	yellow	1	right	right	GLO	none	far	0	intact	none	none	0	0	NaN	NaN	NaN	none	none	NaN	0	0
400	1	100	1	none	1.5	NaN	yellow	0	left	left	GLO	none	close	0	intact	none	none	0	0	NaN	NaN	NaN	none	none	NaN	0	0
400	1	101	1	none	1.5	NaN	red	1	up	up	GLO	none	close	0	intact	none	none	0	0	NaN	NaN	NaN	none	none	NaN	0	0
400	1	102	1	none	1.5	NaN	green	0	right	right	GLO	none	far	0	intact	none	none	0	0	NaN	NaN	NaN	none	none	NaN	0	0
400	1	103	1	none	1.5	NaN	green	1	left	left	GLO	none	close	0	intact	none	none	0	0	NaN	NaN	NaN	none	none	NaN	0	0
400	1	104	1	none	1.5	NaN	green	1	up	up	GLO	none	far	0	intact	none	none	0	0	NaN	NaN	NaN	none	none	NaN	0	0
400	1	105	1	none	1.5	NaN	green	1	up	up	GLO	none	close	0	intact	none	none	0	0	NaN	NaN	NaN	none	none	NaN	0	0
400	1	106	1	none	1.5	NaN	blue	0	up	up	GLO	none	far	0	intact	none	none	0	0	NaN	NaN	NaN	none	none	NaN	0	0
400	1	107	1	none	1.5	NaN	yellow	1	right	right	GLO	none	far	0	intact	none	none	0	0	NaN	NaN	NaN	none	none	NaN	0	0
400	1	108	1	none	1.5	NaN	green	1	up	up	GLO	none	far	0	intact	none	none	0	0	NaN	NaN	NaN	none	none	NaN	0	0
400	1	109	1	none	1.5	NaN	blue	1	left	left	GLO	none	far	0	intact	none	none	0	0	NaN	NaN	NaN	none	none	NaN	0	0
400	1	110	1	none	1.5	NaN	red	0	down	down	GLO	none	far	0	intact	none	none	0	0	NaN	NaN	NaN	none	none	NaN	0	0
400	1	111	1	none	1.5	NaN	yellow	1	up	up	GLO	none	far	0	intact	none	none	0	0	NaN	NaN	NaN	none	none	NaN	0	0
400	1	112	1	none	1.5	NaN	red	1	left	left	GLO	none	close	0	intact	none	none	0	0	NaN	NaN	NaN	none	none	NaN	0	0
400	1	113	1	none	1.5	NaN	yellow	0	left	left	GLO	none	close	0	intact	none	none	0	0	NaN	NaN	NaN	none	none	NaN	0	0
400	1	114	1	none	1.5	NaN	red	0	down	down	GLO	none	close	0	intact	none	none	0	0	NaN	NaN	NaN	none	none	NaN	0	0
400	1	115	1	none	1.5	NaN	yellow	0	left	left	GLO	none	far	0	intact	none	none	0	0	NaN	NaN	NaN	none	none	NaN	0	0
400	1	116	1	none	1.5	NaN	red	0	down	down	GLO	none	far	0	intact	none	none	0	0	NaN	NaN	NaN	none	none	NaN	0	0
400	1	117	1	none	1.5	NaN	yellow	0	left	left	GLO	none	far	0	intact	none	none	0	0	NaN	NaN	NaN	none	none	NaN	0	0
400	1	118	1	none	1.5	NaN	blue	1	left	left	GLO	none	close	0	intact	none	none	0	0	NaN	NaN	NaN	none	none	NaN	0	0
400	1	119	1	none	1.5	NaN	green	0	right	right	GLO	none	close	0	intact	none	none	0	0	NaN	NaN	NaN	none	none	NaN	0	0
400	1	120	1	none	1.5	NaN	red	0	down	down	GLO	none	close	0	intact	none	none	0	0	NaN	NaN	NaN	none	none	NaN	0	0
400	1	121	1	none	1.5	NaN	yellow	0	left	left	GLO	none	close	0	intact	none	none	0	0	NaN	NaN	NaN	none	none	NaN	0	0
400	1	122	1	none	1.5	NaN	red	1	left	left	GLO	none	close	0	intact	none	none	0	0	NaN	NaN	NaN	none	none	NaN	0	0
400	1	123	1	none	1.5	NaN	yellow	1	down	down	GLO	none	close	0	intact	none	none	0	0	NaN	NaN	NaN	none	none	NaN	0	0
400	1	124	1	none	1.5	NaN	red	1	up	up	GLO	none	far	0	intact	none	none	0	0	NaN	NaN	NaN	none	none	NaN	0	0
400	1	125	1	none	1.5	NaN	blue	1	down	down	GLO	none	close	0	intact	none	none	0	0	NaN	NaN	NaN	none	none	NaN	0	0
400	1	126	1	none	1.5	NaN	yellow	0	left	left	GLO	none	far	0	intact	none	none	0	0	NaN	NaN	NaN	none	none	NaN	0	0
400	1	127	1	none	1.5	NaN	yellow	1	right	right	GLO	none	close	0	intact	none	none	0	0	NaN	NaN	NaN	none	none	NaN	0	0
400	1	128	1	none	1.5	NaN	red	0	down	down	GLO	none	far	0	intact	none	none	0	0	NaN	NaN	NaN	none	none	NaN	0	0
400	1	129	1	none	1.5	NaN	blue	1	right	right	GLO	none	far	0	intact	none	none	0	0	NaN	NaN	NaN	none	none	NaN	0	0
400	1	130	1	none	1.5	NaN	green	1	left	left	GLO	none	close	0	intact	none	none	0	0	NaN	NaN	NaN	none	none	NaN	0	0
400	1	131	1	none	1.5	NaN	green	0	right	right	GLO	none	close	0	intact	none	none	0	0	NaN	NaN	NaN	none	none	NaN	0	0
400	1	132	1	none	1.5	NaN	red	1	right	right	GLO	none	close	0	intact	none	none	0	0	NaN	NaN	NaN	none	none	NaN	0	0
400	1	133	1	none	1.5	NaN	red	1	left	left	GLO	none	far	0	intact	none	none	0	0	NaN	NaN	NaN	none	none	NaN	0	0
400	1	134	1	none	1.5	NaN	blue	1	left	left	GLO	none	far	0	intact	none	none	0	0	NaN	NaN	NaN	none	none	NaN	0	0
400	1	135	1	none	1.5	NaN	red	1	left	left	GLO	none	far	0	intact	none	none	0	0	NaN	NaN	NaN	none	none	NaN	0	0
400	1	136	1	none	1.5	NaN	red	0	down	down	GLO	none	close	0	intact	none	none	0	0	NaN	NaN	NaN	none	none	NaN	0	0
400	1	137	1	none	1.5	NaN	yellow	0	left	left	GLO	none	close	0	intact	none	none	0	0	NaN	NaN	NaN	none	none	NaN	0	0
400	1	138	1	none	1.5	NaN	yellow	1	down	down	GLO	none	close	0	intact	none	none	0	0	NaN	NaN	NaN	none	none	NaN	0	0
400	1	139	1	none	1.5	NaN	red	0	down	down	GLO	none	close	0	intact	none	none	0	0	NaN	NaN	NaN	none	none	NaN	0	0
400	1	140	1	none	1.5	NaN	blue	0	up	up	GLO	none	close	0	intact	none	none	0	0	NaN	NaN	NaN	none	none	NaN	0	0
400	1	141	1	none	1.5	NaN	red	1	right	right	GLO	none	far	0	intact	none	none	0	0	NaN	NaN	NaN	none	none	NaN	0	0
400	1	142	1	none	1.5	NaN	blue	0	up	up	GLO	none	close	0	intact	none	none	0	0	NaN	NaN	NaN	none	none	NaN	0	0
400	1	143	1	none	1.5	NaN	blue	1	left	left	GLO	none	far	0	intact	none	none	0	0	NaN	NaN	NaN	none	none	NaN	0	0
400	1	144	1	none	1.5	NaN	yellow	0	left	left	GLO	none	far	0	intact	none	none	0	0	NaN	NaN	NaN	none	none	NaN	0	0
400	1	145	1	none	1.5	NaN	yellow	0	left	left	GLO	none	far	0	intact	none	none	0	0	NaN	NaN	NaN	none	none	NaN	0	0
400	1	146	1	none	1.5	NaN	green	0	right	right	GLO	none	far	0	intact	none	none	0	0	NaN	NaN	NaN	none	none	NaN	0	0
400	1	147	1	none	1.5	NaN	green	1	up	up	GLO	none	close	0	intact	none	none	0	0	NaN	NaN	NaN	none	none	NaN	0	0
400	1	148	1	none	1.5	NaN	blue	1	left	left	GLO	none	close	0	intact	none	none	0	0	NaN	NaN	NaN	none	none	NaN	0	0
400	1	149	1	none	1.5	NaN	blue	0	up	up	GLO	none	close	0	intact	none	none	0	0	NaN	NaN	NaN	none	none	NaN	0	0
400	1	150	1	none	1.5	NaN	red	0	down	down	GLO	none	close	0	intact	none	none	0	0	NaN	NaN	NaN	none	none	NaN	0	0
400	1	151	1	none	1.5	NaN	yellow	1	up	up	GLO	none	far	0	intact	none	none	0	0	NaN	NaN	NaN	none	none	NaN	0	0
400	1	152	1	none	1.5	NaN	green	1	left	left	GLO	none	far	0	intact	none	none	0	0	NaN	NaN	NaN	none	none	NaN	0	0
400	1	153	1	none	1.5	NaN	yellow	0	left	left	GLO	none	close	0	intact	none	none	0	0	NaN	NaN	NaN	none	none	NaN	0	0
400	1	154	1	none	1.5	NaN	yellow	1	up	up	GLO	none	close	0	intact	none	none	0	0	NaN	NaN	NaN	none	none	NaN	0	0
400	1	155	1	none	1.5	NaN	yellow	0	left	left	GLO	none	close	0	intact	none	none	0	0	NaN	NaN	NaN	none	none	NaN	0	0
400	1	156	1	none	1.5	NaN	green	1	left	left	GLO	none	far	0	intact	none	none	0	0	NaN	NaN	NaN	none	none	NaN	0	0
400	1	157	1	none	1.5	NaN	blue	1	down	down	GLO	none	far	0	intact	none	none	0	0	NaN	NaN	NaN	none	none	NaN	0	0
400	1	158	1	none	1.5	NaN	red	0	down	down	GLO	none	far	0	intact	none	none	0	0	NaN	NaN	NaN	none	none	NaN	0	0
400	1	159	1	none	1.5	NaN	blue	1	left	left	GLO	none	far	0	intact	none	none	0	0	NaN	NaN	NaN	none	none	NaN	0	0
400	1	160	1	none	1.5	NaN	yellow	1	down	down	GLO	none	close	0	intact	none	none	0	0	NaN	NaN	NaN	none	none	NaN	0	0
400	1	161	1	none	1.5	NaN	green	1	up	up	GLO	none	far	0	intact	none	none	0	0	NaN	NaN	NaN	none	none	NaN	0	0
400	1	162	1	none	1.5	NaN	green	1	left	left	GLO	none	far	0	intact	none	none	0	0	NaN	NaN	NaN	none	none	NaN	0	0
400	1	163	1	none	1.5	NaN	blue	1	left	left	GLO	none	far	0	intact	none	none	0	0	NaN	NaN	NaN	none	none	NaN	0	0
400	1	164	1	none	1.5	NaN	red	0	down	down	GLO	none	far	0	intact	none	none	0	0	NaN	NaN	NaN	none	none	NaN	0	0
400	1	165	1	none	1.5	NaN	red	0	down	down	GLO	none	far	0	intact	none	none	0	0	NaN	NaN	NaN	none	none	NaN	0	0
400	1	166	1	none	1.5	NaN	red	1	right	right	GLO	none	far	0	intact	none	none	0	0	NaN	NaN	NaN	none	none	NaN	0	0
400	1	167	1	none	1.5	NaN	red	0	down	down	GLO	none	far	0	intact	none	none	0	0	NaN	NaN	NaN	none	none	NaN	0	0
400	1	168	1	none	1.5	NaN	yellow	1	up	up	GLO	none	close	0	intact	none	none	0	0	NaN	NaN	NaN	none	none	NaN	0	0
400	1	169	1	none	1.5	NaN	yellow	1	up	up	GLO	none	close	0	intact	none	none	0	0	NaN	NaN	NaN	none	none	NaN	0	0
400	1	170	1	none	1.5	NaN	blue	1	left	left	GLO	none	far	0	intact	none	none	0	0	NaN	NaN	NaN	none	none	NaN	0	0
400	1	171	1	none	1.5	NaN	blue	1	down	down	GLO	none	far	0	intact	none	none	0	0	NaN	NaN	NaN	none	none	NaN	0	0
400	1	172	1	none	1.5	NaN	green	0	right	right	GLO	none	close	0	intact	none	none	0	0	NaN	NaN	NaN	none	none	NaN	0	0
400	1	173	1	none	1.5	NaN	yellow	1	up	up	GLO	none	far	0	intact	none	none	0	0	NaN	NaN	NaN	none	none	NaN	0	0
400	1	174	1	none	1.5	NaN	yellow	1	up	up	GLO	none	close	0	intact	none	none	0	0	NaN	NaN	NaN	none	none	NaN	0	0
400	1	175	1	none	1.5	NaN	blue	1	down	down	GLO	none	close	0	intact	none	none	0	0	NaN	NaN	NaN	none	none	NaN	0	0
400	1	176	1	none	1.5	NaN	green	1	up	up	GLO	none	far	0	intact	none	none	0	0	NaN	NaN	NaN	none	none	NaN	0	0
400	1	177	1	none	1.5	NaN	blue	1	right	right	GLO	none	close	0	intact	none	none	0	0	NaN	NaN	NaN	none	none	NaN	0	0
400	1	178	1	none	1.5	NaN	yellow	1	up	up	GLO	none	far	0	intact	none	none	0	0	NaN	NaN	NaN	none	none	NaN	0	0
400	1	179	1	none	1.5	NaN	green	1	left	left	GLO	none	far	0	intact	none	none	0	0	NaN	NaN	NaN	none	none	NaN	0	0
400	1	180	1	none	1.5	NaN	blue	0	up	up	GLO	none	far	0	intact	none	none	0	0	NaN	NaN	NaN	none	none	NaN	0	0
400	1	181	1	none	1.5	NaN	blue	0	up	up	GLO	none	close	0	intact	none	none	0	0	NaN	NaN	NaN	none	none	NaN	0	0
400	1	182	1	none	1.5	NaN	blue	0	up	up	GLO	none	far	0	intact	none	none	0	0	NaN	NaN	NaN	none	none	NaN	0	0
400	1	183	1	none	1.5	NaN	blue	1	down	down	GLO	none	far	0	intact	none	none	0	0	NaN	NaN	NaN	none	none	NaN	0	0
400	1	184	1	none	1.5	NaN	red	1	left	left	GLO	none	far	0	intact	none	none	0	0	NaN	NaN	NaN	none	none	NaN	0	0
400	1	185	1	none	1.5	NaN	red	1	right	right	GLO	none	far	0	intact	none	none	0	0	NaN	NaN	NaN	none	none	NaN	0	0
400	1	186	1	none	1.5	NaN	blue	0	up	up	GLO	none	far	0	intact	none	none	0	0	NaN	NaN	NaN	none	none	NaN	0	0
400	1	187	1	none	1.5	NaN	green	0	right	right	GLO	none	close	0	intact	none	none	0	0	NaN	NaN	NaN	none	none	NaN	0	0
400	1	188	1	none	1.5	NaN	red	1	right	right	GLO	none	far	0	intact	none	none	0	0	NaN	NaN	NaN	none	none	NaN	0	0
400	1	189	1	none	1.5	NaN	yellow	0	left	left	GLO	none	far	0	intact	none	none	0	0	NaN	NaN	NaN	none	none	NaN	0	0
400	1	190	1	none	1.5	NaN	red	0	down	down	GLO	none	close	0	intact	none	none	0	0	NaN	NaN	NaN	none	none	NaN	0	0
400	1	191	1	none	1.5	NaN	red	1	right	right	GLO	none	far	0	intact	none	none	0	0	NaN	NaN	NaN	none	none	NaN	0	0
400	1	192	1	none	1.5	NaN	green	1	left	left	GLO	none	close	0	intact	none	none	0	0	NaN	NaN	NaN	none	none	NaN	0	0
400	1	193	1	none	1.5	NaN	red	0	down	down	GLO	none	close	0	intact	none	none	0	0	NaN	NaN	NaN	none	none	NaN	0	0
400	1	194	1	none	1.5	NaN	blue	0	up	up	GLO	none	close	0	intact	none	none	0	0	NaN	NaN	NaN	none	none	NaN	0	0
400	1	195	1	none	1.5	NaN	green	1	left	left	GLO	none	far	0	intact	none	none	0	0	NaN	NaN	NaN	none	none	NaN	0	0
400	1	196	1	none	1.5	NaN	blue	0	up	up	GLO	none	close	0	intact	none	none	0	0	NaN	NaN	NaN	none	none	NaN	0	0
400	1	197	1	none	1.5	NaN	green	1	down	down	GLO	none	far	0	intact	none	none	0	0	NaN	NaN	NaN	none	none	NaN	0	0
400	1	198	1	none	1.5	NaN	red	1	left	left	GLO	none	far	0	intact	none	none	0	0	NaN	NaN	NaN	none	none	NaN	0	0
400	1	199	1	none	1.5	NaN	yellow	1	down	down	GLO	none	close	0	intact	none	none	0	0	NaN	NaN	NaN	none	none	NaN	0	0
400	1	200	1	none	1.5	NaN	red	0	down	down	GLO	none	close	0	intact	none	none	0	0	NaN	NaN	NaN	none	none	NaN	0	0
400	1	201	1	none	1.5	NaN	blue	1	down	down	GLO	none	far	0	intact	none	none	0	0	NaN	NaN	NaN	none	none	NaN	0	0
400	1	202	1	none	1.5	NaN	yellow	0	left	left	GLO	none	far	0	intact	none	none	0	0	NaN	NaN	NaN	none	none	NaN	0	0
400	1	203	1	none	1.5	NaN	yellow	1	down	down	GLO	none	close	0	intact	none	none	0	0	NaN	NaN	NaN	none	none	NaN	0	0
400	1	204	1	none	1.5	NaN	red	1	left	left	GLO	none	far	0	intact	none	none	0	0	NaN	NaN	NaN	none	none	NaN	0	0
400	1	205	1	none	1.5	NaN	red	1	right	right	GLO	none	far	0	intact	none	none	0	0	NaN	NaN	NaN	none	none	NaN	0	0
400	1	206	1	none	1.5	NaN	green	1	up	up	GLO	none	far	0	intact	none	none	0	0	NaN	NaN	NaN	none	none	NaN	0	0
400	1	207	1	none	1.5	NaN	red	0	down	down	GLO	none	close	0	intact	none	none	0	0	NaN	NaN	NaN	none	none	NaN	0	0
400	1	208	1	none	1.5	NaN	yellow	0	left	left	GLO	none	close	0	intact	none	none	0	0	NaN	NaN	NaN	none	none	NaN	0	0
400	1	209	1	none	1.5	NaN	blue	0	up	up	GLO	none	close	0	intact	none	none	0	0	NaN	NaN	NaN	none	none	NaN	0	0
400	1	210	1	none	1.5	NaN	yellow	1	right	right	GLO	none	far	0	intact	none	none	0	0	NaN	NaN	NaN	none	none	NaN	0	0
400	1	211	1	none	1.5	NaN	yellow	0	left	left	GLO	none	far	0	intact	none	none	0	0	NaN	NaN	NaN	none	none	NaN	0	0
400	1	212	1	none	1.5	NaN	green	0	right	right	GLO	none	far	0	intact	none	none	0	0	NaN	NaN	NaN	none	none	NaN	0	0
400	1	213	1	none	1.5	NaN	green	1	down	down	GLO	none	close	0	intact	none	none	0	0	NaN	NaN	NaN	none	none	NaN	0	0
400	1	214	1	none	1.5	NaN	yellow	0	left	left	GLO	none	close	0	intact	none	none	0	0	NaN	NaN	NaN	none	none	NaN	0	0
400	1	215	1	none	1.5	NaN	green	1	down	down	GLO	none	close	0	intact	none	none	0	0	NaN	NaN	NaN	none	none	NaN	0	0
400	1	216	1	none	1.5	NaN	red	0	down	down	GLO	none	far	0	intact	none	none	0	0	NaN	NaN	NaN	none	none	NaN	0	0
400	1	217	1	none	1.5	NaN	red	0	down	down	GLO	none	far	0	intact	none	none	0	0	NaN	NaN	NaN	none	none	NaN	0	0
400	1	218	1	none	1.5	NaN	yellow	0	left	left	GLO	none	far	0	intact	none	none	0	0	NaN	NaN	NaN	none	none	NaN	0	0
400	1	219	1	none	1.5	NaN	blue	1	down	down	GLO	none	far	0	intact	none	none	0	0	NaN	NaN	NaN	none	none	NaN	0	0
400	1	220	1	none	1.5	NaN	green	1	up	up	GLO	none	far	0	intact	none	none	0	0	NaN	NaN	NaN	none	none	NaN	0	0
400	1	221	1	none	1.5	NaN	green	1	down	down	GLO	none	close	0	intact	none	none	0	0	NaN	NaN	NaN	none	none	NaN	0	0
400	1	222	1	none	1.5	NaN	blue	1	right	right	GLO	none	close	0	intact	none	none	0	0	NaN	NaN	NaN	none	none	NaN	0	0
400	1	223	1	none	1.5	NaN	blue	0	up	up	GLO	none	close	0	intact	none	none	0	0	NaN	NaN	NaN	none	none	NaN	0	0
400	1	224	1	none	1.5	NaN	green	0	right	right	GLO	none	close	0	intact	none	none	0	0	NaN	NaN	NaN	none	none	NaN	0	0
400	1	225	1	none	1.5	NaN	blue	1	down	down	GLO	none	close	0	intact	none	none	0	0	NaN	NaN	NaN	none	none	NaN	0	0
400	1	226	1	none	1.5	NaN	green	0	right	right	GLO	none	close	0	intact	none	none	0	0	NaN	NaN	NaN	none	none	NaN	0	0
400	1	227	1	none	1.5	NaN	red	0	down	down	GLO	none	far	0	intact	none	none	0	0	NaN	NaN	NaN	none	none	NaN	0	0
400	1	228	1	none	1.5	NaN	yellow	0	left	left	GLO	none	close	0	intact	none	none	0	0	NaN	NaN	NaN	none	none	NaN	0	0
400	1	229	1	none	1.5	NaN	yellow	1	down	down	GLO	none	far	0	intact	none	none	0	0	NaN	NaN	NaN	none	none	NaN	0	0
400	1	230	1	none	1.5	NaN	blue	1	down	down	GLO	none	close	0	intact	none	none	0	0	NaN	NaN	NaN	none	none	NaN	0	0
400	1	231	1	none	1.5	NaN	blue	0	up	up	GLO	none	close	0	intact	none	none	0	0	NaN	NaN	NaN	none	none	NaN	0	0
400	1	232	1	none	1.5	NaN	green	1	left	left	GLO	none	close	0	intact	none	none	0	0	NaN	NaN	NaN	none	none	NaN	0	0
400	1	233	1	none	1.5	NaN	blue	1	right	right	GLO	none	far	0	intact	none	none	0	0	NaN	NaN	NaN	none	none	NaN	0	0
400	1	234	1	none	1.5	NaN	green	1	up	up	GLO	none	close	0	intact	none	none	0	0	NaN	NaN	NaN	none	none	NaN	0	0
400	1	235	1	none	1.5	NaN	green	0	right	right	GLO	none	close	0	intact	none	none	0	0	NaN	NaN	NaN	none	none	NaN	0	0
400	1	236	1	none	1.5	NaN	green	0	right	right	GLO	none	close	0	intact	none	none	0	0	NaN	NaN	NaN	none	none	NaN	0	0
400	1	237	1	none	1.5	NaN	red	1	left	left	GLO	none	close	0	intact	none	none	0	0	NaN	NaN	NaN	none	none	NaN	0	0
400	1	238	1	none	1.5	NaN	red	0	down	down	GLO	none	far	0	intact	none	none	0	0	NaN	NaN	NaN	none	none	NaN	0	0
400	1	239	1	none	1.5	NaN	yellow	0	left	left	GLO	none	far	0	intact	none	none	0	0	NaN	NaN	NaN	none	none	NaN	0	0
400	1	240	1	none	1.5	NaN	red	0	down	down	GLO	none	close	0	intact	none	none	0	0	NaN	NaN	NaN	none	none	NaN	0	0
400	1	241	1	none	1.5	NaN	blue	0	up	up	GLO	none	far	0	intact	none	none	0	0	NaN	NaN	NaN	none	none	NaN	0	0
400	1	242	1	none	1.5	NaN	blue	0	up	up	GLO	none	close	0	intact	none	none	0	0	NaN	NaN	NaN	none	none	NaN	0	0
400	1	243	1	none	1.5	NaN	blue	1	down	down	GLO	none	far	0	intact	none	none	0	0	NaN	NaN	NaN	none	none	NaN	0	0
400	1	244	1	none	1.5	NaN	yellow	1	down	down	GLO	none	far	0	intact	none	none	0	0	NaN	NaN	NaN	none	none	NaN	0	0
400	1	245	1	none	1.5	NaN	green	0	right	right	GLO	none	far	0	intact	none	none	0	0	NaN	NaN	NaN	none	none	NaN	0	0
400	1	246	1	none	1.5	NaN	yellow	1	right	right	GLO	none	far	0	intact	none	none	0	0	NaN	NaN	NaN	none	none	NaN	0	0
400	1	247	1	none	1.5	NaN	blue	1	down	down	GLO	none	far	0	intact	none	none	0	0	NaN	NaN	NaN	none	none	NaN	0	0
400	1	248	1	none	1.5	NaN	yellow	0	left	left	GLO	none	close	0	intact	none	none	0	0	NaN	NaN	NaN	none	none	NaN	0	0
400	1	249	1	none	1.5	NaN	blue	0	up	up	GLO	none	close	0	intact	none	none	0	0	NaN	NaN	NaN	none	none	NaN	0	0
400	1	250	1	none	1.5	NaN	red	0	down	down	GLO	none	far	0	intact	none	none	0	0	NaN	NaN	NaN	none	none	NaN	0	0
400	1	251	1	none	1.5	NaN	blue	1	down	down	GLO	none	close	0	intact	none	none	0	0	NaN	NaN	NaN	none	none	NaN	0	0
400	1	252	1	none	1.5	NaN	green	1	down	down	GLO	none	close	0	intact	none	none	0	0	NaN	NaN	NaN	none	none	NaN	0	0
400	1	253	1	none	1.5	NaN	yellow	1	right	right	GLO	none	close	0	intact	none	none	0	0	NaN	NaN	NaN	none	none	NaN	0	0
400	1	254	1	none	1.5	NaN	yellow	0	left	left	GLO	none	close	0	intact	none	none	0	0	NaN	NaN	NaN	none	none	NaN	0	0
400	1	255	1	none	1.5	NaN	yellow	1	down	down	GLO	none	far	0	intact	none	none	0	0	NaN	NaN	NaN	none	none	NaN	0	0
400	1	256	1	none	1.5	NaN	red	0	down	down	GLO	none	far	0	intact	none	none	0	0	NaN	NaN	NaN	none	none	NaN	0	0
400	1	257	1	none	1.5	NaN	yellow	0	left	left	GLO	none	far	0	intact	none	none	0	0	NaN	NaN	NaN	none	none	NaN	0	0
400	1	258	1	none	1.5	NaN	red	1	left	left	GLO	none	far	0	intact	none	none	0	0	NaN	NaN	NaN	none	none	NaN	0	0
400	1	259	1	none	1.5	NaN	blue	1	down	down	GLO	none	far	0	intact	none	none	0	0	NaN	NaN	NaN	none	none	NaN	0	0
400	1	260	1	none	1.5	NaN	red	0	down	down	GLO	none	close	0	intact	none	none	0	0	NaN	NaN	NaN	none	none	NaN	0	0
400	1	261	1	none	1.5	NaN	blue	0	up	up	GLO	none	close	0	intact	none	none	0	0	NaN	NaN	NaN	none	none	NaN	0	0
400	1	262	1	none	1.5	NaN	yellow	0	left	left	GLO	none	far	0	intact	none	none	0	0	NaN	NaN	NaN	none	none	NaN	0	0
400	1	263	1	none	1.5	NaN	yellow	0	left	left	GLO	none	close	0	intact	none	none	0	0	NaN	NaN	NaN	none	none	NaN	0	0
400	1	264	1	none	1.5	NaN	green	1	down	down	GLO	none	far	0	intact	none	none	0	0	NaN	NaN	NaN	none	none	NaN	0	0
400	1	265	1	none	1.5	NaN	red	0	down	down	GLO	none	close	0	intact	none	none	0	0	NaN	NaN	NaN	none	none	NaN	0	0
400	1	266	1	none	1.5	NaN	blue	0	up	up	GLO	none	close	0	intact	none	none	0	0	NaN	NaN	NaN	none	none	NaN	0	0
400	1	267	1	none	1.5	NaN	yellow	1	up	up	GLO	none	far	0	intact	none	none	0	0	NaN	NaN	NaN	none	none	NaN	0	0
400	1	268	1	none	1.5	NaN	blue	0	up	up	GLO	none	far	0	intact	none	none	0	0	NaN	NaN	NaN	none	none	NaN	0	0
400	1	269	1	none	1.5	NaN	blue	0	up	up	GLO	none	close	0	intact	none	none	0	0	NaN	NaN	NaN	none	none	NaN	0	0
400	1	270	1	none	1.5	NaN	green	1	left	left	GLO	none	close	0	intact	none	none	0	0	NaN	NaN	NaN	none	none	NaN	0	0
400	1	271	1	none	1.5	NaN	red	0	down	down	GLO	none	close	0	intact	none	none	0	0	NaN	NaN	NaN	none	none	NaN	0	0
400	1	272	1	none	1.5	NaN	blue	0	up	up	GLO	none	far	0	intact	none	none	0	0	NaN	NaN	NaN	none	none	NaN	0	0
400	1	273	1	none	1.5	NaN	green	1	down	down	GLO	none	far	0	intact	none	none	0	0	NaN	NaN	NaN	none	none	NaN	0	0
400	1	274	1	none	1.5	NaN	blue	1	left	left	GLO	none	close	0	intact	none	none	0	0	NaN	NaN	NaN	none	none	NaN	0	0
400	1	275	1	none	1.5	NaN	green	1	down	down	GLO	none	far	0	intact	none	none	0	0	NaN	NaN	NaN	none	none	NaN	0	0
400	1	276	1	none	1.5	NaN	green	0	right	right	GLO	none	close	0	intact	none	none	0	0	NaN	NaN	NaN	none	none	NaN	0	0
400	1	277	1	none	1.5	NaN	blue	0	up	up	GLO	none	close	0	intact	none	none	0	0	NaN	NaN	NaN	none	none	NaN	0	0
400	2	1	1	auto	0.5	0.515897	green	0	right	right	GLO	right	close	1	intact	intact	July_2016_fps_avg_aud.mp4	1	890	6.25521	4.58209	2	right	green	1	0	0
400	2	2	1	auto	0.5	0.51693	green	1	down	down	GLO	right	close	0	intact	none	none	0	0	0.614571	0	1	right	green	1	0	0
400	2	3	1	auto	0.5	0.516385	yellow	0	left	left	GLO	left	far	1	intact	intact	4d7a8a8c-063f-4a89-bd24-c32713b6ffa7_fps_avg_aud.mp4	1	1078	5.24761	4.63217	2	left	yellow	1	0	0
400	2	4	1	auto	0.5	0.517283	yellow	1	up	up	GLO	right	far	1	intact	intact	May_18_2016_fps_avg_aud.mp4	1	1356	6.76665	5.71766	3	left	yellow	1	0	0
400	2	5	1	auto	0.5	0.5168	green	0	right	right	GLO	left	far	1	intact	intact	Apr16_fps_avg_aud.mp4	1	209	1.78086	1.07928	2	right	green	1	0	0
400	2	6	1	auto	0.5	0.517423	blue	1	down	down	GLO	left	far	1	intact	intact	December_2015_(1)_fps_avg_aud.mp4	1	1127	5.28327	4.38498	2	up	blue	1	0	0
400	2	7	1	auto	1.5	1.51699	blue	1	right	right	GLO	right	close	0	intact	none	none	0	0	0.665592	0	1	up	blue	1	0	0
400	2	8	1	auto	1.5	1.51692	red	0	down	down	GLO	right	close	1	intact	intact	July6_fps_avg_aud.mp4	1	1225	5.48451	4.90364	2	down	red	1	0	0
400	2	9	1	auto	1.5	1.51657	green	0	right	right	GLO	left	close	1	intact	intact	9c75459a-7dcd-444e-93fd-b229653b8169_fps_avg_aud.mp4	1	329	2.16603	1.63291	2	right	green	1	0	0
400	2	10	1	auto	1.5	1.5167	red	0	down	down	GLO	left	far	0	intact	none	none	0	0	1.23323	0	1	down	red	1	0	0
400	2	11	1	auto	1.5	1.51659	green	1	down	down	GLO	left	far	1	intact	intact	e2244423-2494-4cef-96da-ceaa115b3e8d_fps_avg_aud.mp4	1	1122	5.60648	4.50357	3	right	green	1	0	0
400	2	12	1	auto	1.5	1.51607	green	0	right	right	GLO	right	far	0	intact	none	none	0	0	0.523042	0	1	right	green	1	0	0
400	2	13	1	auto	1.5	1.51638	blue	0	up	up	GLO	right	far	0	intact	none	none	0	0	3.80053	0	1	up	blue	1	0	0
400	2	14	1	auto	1.5	NaN	green	0	right	right	GLO	none	far	1	intact	intact	May19_fps_avg_aud.mp4	0	0	NaN	NaN	NaN	none	none	NaN	0	0
400	2	15	1	auto	1.5	NaN	green	0	right	right	GLO	none	close	1	intact	intact	Dec27_fps_avg_aud.mp4	0	0	NaN	NaN	NaN	none	none	NaN	0	0
400	2	16	1	auto	1.5	NaN	red	1	up	up	GLO	none	close	1	intact	intact	af0fa101-699c-45fe-9ac0-b3a3d283604b_fps_avg_aud.mp4	0	0	NaN	NaN	NaN	none	none	NaN	0	0
400	2	17	1	auto	1.5	NaN	green	0	right	right	GLO	none	close	1	intact	intact	November_14_2016_fps_avg_aud.mp4	0	0	NaN	NaN	NaN	none	none	NaN	0	0
400	2	18	1	auto	1.5	NaN	blue	0	up	up	GLO	none	close	1	intact	intact	June_17_2015_fps_avg_aud.mp4	0	0	NaN	NaN	NaN	none	none	NaN	0	0
400	2	19	1	auto	1.5	NaN	blue	1	down	down	GLO	none	far	1	intact	intact	ed9842b1-ccb5-4e6e-8fcb-d81eb3d6f297_fps_avg_aud.mp4	0	0	NaN	NaN	NaN	none	none	NaN	0	0
400	2	20	1	auto	1.5	NaN	red	1	left	left	GLO	none	close	0	intact	none	none	0	0	NaN	NaN	NaN	none	none	NaN	0	0
400	2	21	1	auto	1.5	NaN	blue	1	left	left	GLO	none	far	1	intact	intact	Oct31_fps_avg_aud.mp4	0	0	NaN	NaN	NaN	none	none	NaN	0	0
400	2	22	1	auto	1.5	NaN	red	0	down	down	GLO	none	far	0	intact	none	none	0	0	NaN	NaN	NaN	none	none	NaN	0	0
400	2	23	1	auto	1.5	NaN	red	1	right	right	GLO	none	far	1	intact	intact	August1_fps_avg_aud.mp4	0	0	NaN	NaN	NaN	none	none	NaN	0	0
400	2	24	1	auto	1.5	NaN	red	0	down	down	GLO	none	close	1	intact	intact	Dec23_fps_avg_aud.mp4	0	0	NaN	NaN	NaN	none	none	NaN	0	0
400	2	25	1	auto	1.5	NaN	green	1	left	left	GLO	none	close	0	intact	none	none	0	0	NaN	NaN	NaN	none	none	NaN	0	0
400	2	26	1	auto	1.5	NaN	red	0	down	down	GLO	none	close	1	intact	intact	a444c8a7-2f60-4193-8052-530d5b35ed4c_fps_avg_aud.mp4	0	0	NaN	NaN	NaN	none	none	NaN	0	0
400	2	27	1	auto	1.5	NaN	blue	0	up	up	GLO	none	close	0	intact	none	none	0	0	NaN	NaN	NaN	none	none	NaN	0	0
400	2	28	1	auto	1.5	NaN	blue	1	left	left	GLO	none	close	0	intact	none	none	0	0	NaN	NaN	NaN	none	none	NaN	0	0
400	2	29	1	auto	1.5	NaN	blue	1	left	left	GLO	none	close	0	intact	none	none	0	0	NaN	NaN	NaN	none	none	NaN	0	0
400	2	30	1	auto	1.5	NaN	yellow	0	left	left	GLO	none	far	1	intact	intact	e5ba6207-d3a1-4e68-9c36-3fbb5658f232_fps_avg_aud.mp4	0	0	NaN	NaN	NaN	none	none	NaN	0	0
400	2	31	1	auto	1.5	NaN	red	0	down	down	GLO	none	close	1	intact	intact	Apr19_fps_avg_aud.mp4	0	0	NaN	NaN	NaN	none	none	NaN	0	0
400	2	32	1	auto	1.5	NaN	red	1	up	up	GLO	none	far	0	intact	none	none	0	0	NaN	NaN	NaN	none	none	NaN	0	0
400	2	33	1	auto	1.5	NaN	yellow	1	right	right	GLO	none	far	1	intact	intact	647890e0-5689-43cf-86ab-b37e61076130_fps_avg_aud.mp4	0	0	NaN	NaN	NaN	none	none	NaN	0	0
400	2	34	1	auto	1.5	NaN	red	1	right	right	GLO	none	close	1	intact	intact	9df4c83d-45cc-4501-be4d-279a04192ba4_fps_avg_aud.mp4	0	0	NaN	NaN	NaN	none	none	NaN	0	0
400	2	35	1	auto	1.5	NaN	red	1	right	right	GLO	none	far	0	intact	none	none	0	0	NaN	NaN	NaN	none	none	NaN	0	0
400	2	36	1	auto	1.5	NaN	red	1	up	up	GLO	none	far	1	intact	intact	Feb25_fps_avg_aud.mp4	0	0	NaN	NaN	NaN	none	none	NaN	0	0
400	2	37	1	auto	1.5	NaN	blue	0	up	up	GLO	none	close	0	intact	none	none	0	0	NaN	NaN	NaN	none	none	NaN	0	0
400	2	38	1	auto	1.5	NaN	blue	0	up	up	GLO	none	close	1	intact	intact	d928ad07-fccb-4758-905a-ca2e2f1c06b6_fps_avg_aud.mp4	0	0	NaN	NaN	NaN	none	none	NaN	0	0
400	2	39	1	auto	1.5	NaN	yellow	0	left	left	GLO	none	close	1	intact	intact	Apr1_fps_avg_aud.mp4	0	0	NaN	NaN	NaN	none	none	NaN	0	0
400	2	40	1	auto	1.5	NaN	blue	0	up	up	GLO	none	close	1	intact	intact	667c6586-78bc-49b6-b207-12bdfa8fdd9e_fps_avg_aud.mp4	0	0	NaN	NaN	NaN	none	none	NaN	0	0
400	2	41	1	auto	1.5	NaN	green	0	right	right	GLO	none	close	1	intact	intact	December_2015_fps_avg_aud.mp4	0	0	NaN	NaN	NaN	none	none	NaN	0	0
400	2	42	1	auto	1.5	NaN	green	1	down	down	GLO	none	close	1	intact	intact	210cd477-4b9d-42a8-810f-6df0d7615942_fps_avg_aud.mp4	0	0	NaN	NaN	NaN	none	none	NaN	0	0
400	2	43	1	auto	1.5	NaN	red	0	down	down	GLO	none	far	1	intact	intact	92171dfa-1474-4f0d-8c37-ab1d226fa154(1)_fps_avg_aud.mp4	0	0	NaN	NaN	NaN	none	none	NaN	0	0
400	2	44	1	auto	1.5	NaN	yellow	0	left	left	GLO	none	far	0	intact	none	none	0	0	NaN	NaN	NaN	none	none	NaN	0	0
400	2	45	1	auto	1.5	NaN	green	0	right	right	GLO	none	far	1	intact	intact	93875f0f-82c8-483c-b71c-a32b6cf111d2_fps_avg_aud.mp4	0	0	NaN	NaN	NaN	none	none	NaN	0	0
400	2	46	1	auto	1.5	NaN	yellow	0	left	left	GLO	none	far	1	intact	intact	05a4f0ad-5d14-4bd5-8c2b-7db284b369ce_fps_avg_aud.mp4	0	0	NaN	NaN	NaN	none	none	NaN	0	0
400	2	47	1	auto	1.5	NaN	green	0	right	right	GLO	none	close	0	intact	none	none	0	0	NaN	NaN	NaN	none	none	NaN	0	0
400	2	48	1	auto	1.5	NaN	green	1	left	left	GLO	none	far	0	intact	none	none	0	0	NaN	NaN	NaN	none	none	NaN	0	0
400	2	49	1	auto	1.5	NaN	green	1	up	up	GLO	none	far	0	intact	none	none	0	0	NaN	NaN	NaN	none	none	NaN	0	0
400	2	50	1	auto	1.5	NaN	blue	0	up	up	GLO	none	far	1	intact	intact	Feb1_fps_avg_aud.mp4	0	0	NaN	NaN	NaN	none	none	NaN	0	0
400	2	51	1	auto	1.5	NaN	blue	0	up	up	GLO	none	close	1	intact	intact	06166668-1aac-4d03-b242-d4a5635a694b_fps_avg_aud.mp4	0	0	NaN	NaN	NaN	none	none	NaN	0	0
400	2	52	1	auto	1.5	NaN	blue	1	left	left	GLO	none	far	1	intact	intact	b23c9ea6-adb6-492c-965f-16af3f7801e9_fps_avg_aud.mp4	0	0	NaN	NaN	NaN	none	none	NaN	0	0
400	2	53	1	auto	1.5	NaN	green	1	down	down	GLO	none	far	0	intact	none	none	0	0	NaN	NaN	NaN	none	none	NaN	0	0
400	2	54	1	auto	1.5	NaN	green	1	left	left	GLO	none	close	1	intact	intact	d59b9ee2-e1af-4171-a59e-9daefced695e_fps_avg_aud.mp4	0	0	NaN	NaN	NaN	none	none	NaN	0	0
400	2	55	1	auto	1.5	NaN	red	0	down	down	GLO	none	close	1	intact	intact	cad0ae4f-8fd8-463e-9880-f0c1f9462bac_fps_avg_aud.mp4	0	0	NaN	NaN	NaN	none	none	NaN	0	0
400	2	56	1	auto	1.5	NaN	red	0	down	down	GLO	none	far	1	intact	intact	1c37d23d-fc2a-4933-8024-0106ebebe6c4_fps_avg_aud.mp4	0	0	NaN	NaN	NaN	none	none	NaN	0	0
400	2	57	1	auto	1.5	NaN	blue	0	up	up	GLO	none	close	0	intact	none	none	0	0	NaN	NaN	NaN	none	none	NaN	0	0
400	2	58	1	auto	1.5	NaN	green	1	down	down	GLO	none	far	1	intact	intact	Jun5_fps_avg_aud.mp4	0	0	NaN	NaN	NaN	none	none	NaN	0	0
400	2	59	1	auto	1.5	NaN	red	1	left	left	GLO	none	far	1	intact	intact	Mar19_fps_avg_aud.mp4	0	0	NaN	NaN	NaN	none	none	NaN	0	0
400	2	60	1	auto	1.5	NaN	yellow	0	left	left	GLO	none	far	1	intact	intact	0602c0a8-082a-4bca-9f5b-70795017698f_fps_avg_aud.mp4	0	0	NaN	NaN	NaN	none	none	NaN	0	0
400	2	61	1	auto	1.5	NaN	yellow	1	right	right	GLO	none	far	1	intact	intact	May_2016_fps_avg_aud.mp4	0	0	NaN	NaN	NaN	none	none	NaN	0	0
400	2	62	1	auto	1.5	NaN	blue	0	up	up	GLO	none	close	0	intact	none	none	0	0	NaN	NaN	NaN	none	none	NaN	0	0
400	2	63	1	auto	1.5	NaN	yellow	0	left	left	GLO	none	far	0	intact	none	none	0	0	NaN	NaN	NaN	none	none	NaN	0	0
400	2	64	1	auto	1.5	NaN	blue	0	up	up	GLO	none	far	0	intact	none	none	0	0	NaN	NaN	NaN	none	none	NaN	0	0
400	2	65	1	auto	1.5	NaN	red	0	down	down	GLO	none	close	0	intact	none	none	0	0	NaN	NaN	NaN	none	none	NaN	0	0
400	2	66	1	auto	1.5	NaN	yellow	0	left	left	GLO	none	far	0	intact	none	none	0	0	NaN	NaN	NaN	none	none	NaN	0	0
400	2	67	1	auto	1.5	NaN	blue	0	up	up	GLO	none	far	1	intact	intact	jun14_fps_avg_aud.mp4	0	0	NaN	NaN	NaN	none	none	NaN	0	0
400	2	68	1	auto	1.5	NaN	green	1	down	down	GLO	none	close	1	intact	intact	705c0056-c7dd-4090-a27e-8956e33cb4b0_fps_avg_aud.mp4	0	0	NaN	NaN	NaN	none	none	NaN	0	0
400	2	69	1	auto	1.5	NaN	red	0	down	down	GLO	none	far	0	intact	none	none	0	0	NaN	NaN	NaN	none	none	NaN	0	0
400	2	70	1	auto	1.5	NaN	yellow	0	left	left	GLO	none	close	0	intact	none	none	0	0	NaN	NaN	NaN	none	none	NaN	0	0
400	2	71	1	auto	1.5	NaN	blue	1	down	down	GLO	none	close	1	intact	intact	Apr30_fps_avg_aud.mp4	0	0	NaN	NaN	NaN	none	none	NaN	0	0
400	2	72	1	auto	1.5	NaN	blue	0	up	up	GLO	none	close	0	intact	none	none	0	0	NaN	NaN	NaN	none	none	NaN	0	0
400	2	73	1	auto	1.5	NaN	green	0	right	right	GLO	none	far	0	intact	none	none	0	0	NaN	NaN	NaN	none	none	NaN	0	0
400	2	74	1	auto	1.5	NaN	yellow	0	left	left	GLO	none	close	1	intact	intact	5901a51f-f684-46c5-8a4f-abc4c05199d0_fps_avg_aud.mp4	0	0	NaN	NaN	NaN	none	none	NaN	0	0
400	2	75	1	auto	1.5	NaN	yellow	1	right	right	GLO	none	close	1	intact	intact	15914fca-fb16-47ce-929a-161ca2c1fdf7_fps_avg_aud.mp4	0	0	NaN	NaN	NaN	none	none	NaN	0	0
400	2	76	1	auto	1.5	NaN	red	0	down	down	GLO	none	far	1	intact	intact	de0e4ce1-0f87-4077-b69c-578049fe4691_fps_avg_aud.mp4	0	0	NaN	NaN	NaN	none	none	NaN	0	0
400	2	77	1	auto	1.5	NaN	green	0	right	right	GLO	none	far	1	intact	intact	October_20_2016_fps_avg_aud.mp4	0	0	NaN	NaN	NaN	none	none	NaN	0	0
400	2	78	1	auto	1.5	NaN	red	0	down	down	GLO	none	far	0	intact	none	none	0	0	NaN	NaN	NaN	none	none	NaN	0	0
400	2	79	1	auto	1.5	NaN	red	1	right	right	GLO	none	far	0	intact	none	none	0	0	NaN	NaN	NaN	none	none	NaN	0	0
400	2	80	1	auto	1.5	NaN	green	1	down	down	GLO	none	close	1	intact	intact	bde7c25a-0ad2-4261-821f-9cae1d4d4033_fps_avg_aud.mp4	0	0	NaN	NaN	NaN	none	none	NaN	0	0
400	2	81	1	auto	1.5	NaN	red	1	up	up	GLO	none	far	0	intact	none	none	0	0	NaN	NaN	NaN	none	none	NaN	0	0
400	2	82	1	auto	1.5	NaN	yellow	1	right	right	GLO	none	close	0	intact	none	none	0	0	NaN	NaN	NaN	none	none	NaN	0	0
400	2	83	1	auto	1.5	NaN	yellow	1	down	down	GLO	none	far	1	intact	intact	a24b6226-d6e8-4655-b874-d79fefacec8c_fps_avg_aud.mp4	0	0	NaN	NaN	NaN	none	none	NaN	0	0
400	2	84	1	auto	1.5	NaN	red	1	left	left	GLO	none	close	1	intact	intact	e57a35d6-39b7-4b9c-a4a1-844e0bebd3c1_fps_avg_aud.mp4	0	0	NaN	NaN	NaN	none	none	NaN	0	0
400	2	85	1	auto	1.5	NaN	yellow	0	left	left	GLO	none	far	0	intact	none	none	0	0	NaN	NaN	NaN	none	none	NaN	0	0
400	2	86	1	auto	1.5	NaN	blue	1	right	right	GLO	none	far	0	intact	none	none	0	0	NaN	NaN	NaN	none	none	NaN	0	0
400	2	87	1	auto	1.5	NaN	red	0	down	down	GLO	none	close	1	intact	intact	b30caa2d-af05-4325-9f3a-3d34dcb611e7_fps_avg_aud.mp4	0	0	NaN	NaN	NaN	none	none	NaN	0	0
400	2	88	1	auto	1.5	NaN	green	1	up	up	GLO	none	far	1	intact	intact	Aug10_fps_avg_aud.mp4	0	0	NaN	NaN	NaN	none	none	NaN	0	0
400	2	89	1	auto	1.5	NaN	green	0	right	right	GLO	none	far	1	intact	intact	cabd6947-9e88-4e9a-90fa-985b610f3784_fps_avg_aud.mp4	0	0	NaN	NaN	NaN	none	none	NaN	0	0
400	2	90	1	auto	1.5	NaN	green	0	right	right	GLO	none	far	0	intact	none	none	0	0	NaN	NaN	NaN	none	none	NaN	0	0
400	2	91	1	auto	1.5	NaN	blue	1	down	down	GLO	none	far	1	intact	intact	Mar30_fps_avg_aud.mp4	0	0	NaN	NaN	NaN	none	none	NaN	0	0
400	2	92	1	auto	1.5	NaN	red	0	down	down	GLO	none	close	0	intact	none	none	0	0	NaN	NaN	NaN	none	none	NaN	0	0
400	2	93	1	auto	1.5	NaN	green	0	right	right	GLO	none	close	1	intact	intact	98afb848-1bd2-46a6-89c7-32d60d6d1855_fps_avg_aud.mp4	0	0	NaN	NaN	NaN	none	none	NaN	0	0
400	3	1	1	self	0.5	0.516611	green	0	right	right	GLO	left	far	1	intact	intact	058bdf98-bb64-4851-92f5-ffad71866ee8_fps_avg_aud.mp4	0	0	0.867241	0	1	right	green	1	0	0
400	3	2	1	self	0.5	0.516401	yellow	0	left	left	GLO	left	far	1	intact	intact	January_2016_fps_avg_aud.mp4	0	0	1.1007	0	1	left	yellow	1	0	0
400	3	3	1	self	0.5	0.51637	red	1	right	right	GLO	left	far	1	intact	intact	cea732af-276b-4e98-ac0e-85adfd7a4545_fps_avg_aud.mp4	0	0	1.31718	0	1	down	red	1	0	0
400	3	4	1	self	0.5	0.516153	green	1	up	up	GLO	left	close	1	intact	intact	Mar3_fps_avg_aud.mp4	1	1353	5.80032	5.2	14	right	green	1	0	0
400	3	5	1	self	0.5	0.517077	green	0	right	right	GLO	left	far	1	intact	intact	f7063dab-b99f-4ced-99a1-d8e067de3ccd_fps_avg_aud.mp4	0	0	0.548214	0	1	right	green	1	0	0
400	3	6	1	self	0.5	0.516146	green	0	right	right	GLO	right	far	1	intact	intact	24481237-3ead-4e6a-9a61-be95f34bf5f2_fps_avg_aud.mp4	0	0	0.633886	0	1	right	green	1	0	0
400	3	7	1	self	0.5	0.517192	green	0	right	right	GLO	right	close	1	intact	intact	c5792f9d-c420-493b-acf2-46528babd08c_fps_avg_aud.mp4	0	0	0.525671	0	1	right	green	1	0	0
400	3	8	1	self	0.5	0.516182	green	0	right	right	GLO	left	close	1	intact	intact	61be81ef-2338-498f-a09a-fd23aea0f3ec_fps_avg_aud.mp4	0	0	0.445842	0	1	right	green	1	0	0
400	3	9	1	self	0.5	0.515893	green	0	right	right	GLO	left	far	1	intact	intact	5a4ed86a-8ef5-4056-813c-083746f26c03_fps_avg_aud.mp4	0	0	0.36743	0	1	right	green	1	0	0
400	3	10	1	self	0.5	0.517493	yellow	0	left	left	GLO	left	close	1	intact	intact	fb42eb92-ecec-41cf-8ef3-e4a7b0a219f1_fps_avg_aud.mp4	0	0	1.10855	0	1	left	yellow	1	0	0
400	3	11	1	self	0.5	0.516246	green	0	right	right	GLO	left	close	1	intact	intact	cef9c179-f64d-4543-875f-6808da2329b6_fps_avg_aud.mp4	1	1609	6.91679	6.41752	3	right	green	1	0	0
400	3	12	1	self	0.5	0.516198	yellow	1	up	up	GLO	left	far	1	intact	intact	Dec13_fps_avg_aud.mp4	0	0	0.833047	0	1	left	yellow	1	0	0
400	3	13	1	self	0.5	0.5171	green	1	left	left	GLO	right	far	1	intact	intact	38a0ff6f-f976-4235-af7e-49859d376c46_fps_avg_aud.mp4	0	0	0.923463	0	1	right	green	1	0	0
400	3	14	1	self	1.5	1.51585	yellow	1	right	right	GLO	right	far	1	intact	intact	March_15_2016_fps_avg_aud.mp4	0	0	0.733655	0	1	left	yellow	1	0	0
400	3	15	1	self	1.5	1.5173	red	0	down	down	GLO	right	close	1	intact	intact	4492b756-14ac-4694-8c38-fa7503b864e1_fps_avg_aud.mp4	1	627	4.51152	2.45685	2	down	red	1	0	0
400	3	16	1	self	1.5	1.5172	red	1	right	right	GLO	left	far	1	intact	intact	May18_fps_avg_aud.mp4	0	0	0.700216	0	1	down	red	1	0	0
400	3	17	1	self	1.5	1.51672	blue	0	up	up	GLO	left	close	1	intact	intact	bfb38b58-a56a-427a-a233-3b6663beed7c_fps_avg_aud.mp4	0	0	0.532691	0	1	up	blue	1	0	0
400	3	18	1	self	1.5	1.51632	red	1	up	up	GLO	left	close	1	intact	intact	Jul4_fps_avg_aud.mp4	1	1002	4.21591	3.86855	2	right	green	0	0	0
400	3	19	1	self	1.5	1.51663	blue	1	right	right	GLO	left	close	1	intact	intact	e5e9435d-267e-4f33-bd02-80f8eeedf363_fps_avg_aud.mp4	0	0	1.08364	0	1	up	blue	1	0	0
400	3	20	1	self	1.5	1.51741	red	1	left	left	GLO	right	far	1	intact	intact	5901a51f-f684-46c5-8a4f-abc4c05199d0_fps_avg_aud.mp4	0	0	1.01667	0	1	down	red	1	0	0
400	3	21	1	self	1.5	1.51599	blue	1	right	right	GLO	right	far	1	intact	intact	Jan13_fps_avg_aud.mp4	0	0	0.750037	0	1	up	blue	1	0	0
400	3	22	1	self	1.5	1.51685	green	1	up	up	GLO	left	close	1	intact	intact	9747c74d-dde2-4f34-b67e-0e02a9c1a69c_fps_avg_aud.mp4	0	0	0.798737	0	1	right	green	1	0	0
400	3	23	1	self	1.5	NaN	yellow	0	left	left	GLO	none	far	1	intact	intact	149f1481-9792-4892-beba-4137601f26a6_fps_avg_aud.mp4	0	0	NaN	NaN	NaN	none	none	NaN	0	0
400	3	24	1	self	1.5	NaN	yellow	0	left	left	GLO	none	close	1	intact	intact	Nov9_fps_avg_aud.mp4	0	0	NaN	NaN	NaN	none	none	NaN	0	0
400	3	25	1	self	1.5	NaN	red	0	down	down	GLO	none	close	1	intact	intact	Feb28_fps_avg_aud.mp4	0	0	NaN	NaN	NaN	none	none	NaN	0	0
400	3	26	1	self	1.5	NaN	red	1	right	right	GLO	none	far	1	intact	intact	491f864e-d652-4cca-82ba-d023f3192016_fps_avg_aud.mp4	0	0	NaN	NaN	NaN	none	none	NaN	0	0
400	3	27	1	self	1.5	NaN	yellow	0	left	left	GLO	none	far	1	intact	intact	b8f7a383-ba3e-49db-977d-18cbd8702864_fps_avg_aud.mp4	0	0	NaN	NaN	NaN	none	none	NaN	0	0
400	3	28	1	self	1.5	NaN	yellow	0	left	left	GLO	none	far	1	intact	intact	November_14_2016_fps_avg_aud.mp4	0	0	NaN	NaN	NaN	none	none	NaN	0	0
400	3	29	1	self	1.5	NaN	red	0	down	down	GLO	none	close	1	intact	intact	Nov10_fps_avg_aud.mp4	0	0	NaN	NaN	NaN	none	none	NaN	0	0
400	3	30	1	self	1.5	NaN	red	1	up	up	GLO	none	close	1	intact	intact	June_2016_(2)_fps_avg_aud.mp4	0	0	NaN	NaN	NaN	none	none	NaN	0	0
400	3	31	1	self	1.5	NaN	yellow	0	left	left	GLO	none	close	1	intact	intact	8fc730b2-0fc1-4125-9e0e-c9ed1f9ab58a_fps_avg_aud.mp4	0	0	NaN	NaN	NaN	none	none	NaN	0	0
400	3	32	1	self	1.5	NaN	yellow	0	left	left	GLO	none	far	1	intact	intact	54741aa9-fdb7-4546-b60b-078b0914ddd1_fps_avg_aud.mp4	0	0	NaN	NaN	NaN	none	none	NaN	0	0
400	3	33	1	self	1.5	NaN	green	0	right	right	GLO	none	far	1	intact	intact	a707cf2a-2929-40a6-a19c-21d84be0dc1e_fps_avg_aud.mp4	0	0	NaN	NaN	NaN	none	none	NaN	0	0
400	3	34	1	self	1.5	NaN	yellow	0	left	left	GLO	none	close	1	intact	intact	Jan10_fps_avg_aud.mp4	0	0	NaN	NaN	NaN	none	none	NaN	0	0
400	3	35	1	self	1.5	NaN	red	1	right	right	GLO	none	close	1	intact	intact	October_14_2016_fps_avg_aud.mp4	0	0	NaN	NaN	NaN	none	none	NaN	0	0
400	3	36	1	self	1.5	NaN	yellow	1	right	right	GLO	none	close	1	intact	intact	339eedaf-ff90-439f-b68a-797258b27c12_fps_avg_aud.mp4	0	0	NaN	NaN	NaN	none	none	NaN	0	0
400	3	37	1	self	1.5	NaN	red	0	down	down	GLO	none	close	1	intact	intact	April_2015_fps_avg_aud.mp4	0	0	NaN	NaN	NaN	none	none	NaN	0	0
400	3	38	1	self	1.5	NaN	yellow	0	left	left	GLO	none	close	1	intact	intact	533b0238-357b-409c-8d86-25285970eb98_fps_avg_aud.mp4	0	0	NaN	NaN	NaN	none	none	NaN	0	0
400	3	39	1	self	1.5	NaN	green	1	up	up	GLO	none	close	1	intact	intact	July23_fps_avg_aud.mp4	0	0	NaN	NaN	NaN	none	none	NaN	0	0
400	3	40	1	self	1.5	NaN	red	1	left	left	GLO	none	far	1	intact	intact	4db3f410-b7dd-4157-a876-374c50f0a479_fps_avg_aud.mp4	0	0	NaN	NaN	NaN	none	none	NaN	0	0
400	3	41	1	self	1.5	NaN	red	0	down	down	GLO	none	far	1	intact	intact	Feb17_fps_avg_aud.mp4	0	0	NaN	NaN	NaN	none	none	NaN	0	0
400	3	42	1	self	1.5	NaN	green	0	right	right	GLO	none	far	1	intact	intact	94b03dc1-7d37-4553-b382-cb9494e3b7f1_fps_avg_aud.mp4	0	0	NaN	NaN	NaN	none	none	NaN	0	0
400	3	43	1	self	1.5	NaN	yellow	1	down	down	GLO	none	far	1	intact	intact	0602c0a8-082a-4bca-9f5b-70795017698f_fps_avg_aud.mp4	0	0	NaN	NaN	NaN	none	none	NaN	0	0
400	3	44	1	self	1.5	NaN	blue	0	up	up	GLO	none	close	1	intact	intact	Oct1_fps_avg_aud.mp4	0	0	NaN	NaN	NaN	none	none	NaN	0	0
400	3	45	1	self	1.5	NaN	yellow	1	up	up	GLO	none	far	1	intact	intact	beb38bd6-976e-468f-9f23-b6b41f12ce11_fps_avg_aud.mp4	0	0	NaN	NaN	NaN	none	none	NaN	0	0
400	3	46	1	self	1.5	NaN	blue	1	down	down	GLO	none	far	1	intact	intact	Aug1_fps_avg_aud.mp4	0	0	NaN	NaN	NaN	none	none	NaN	0	0
400	3	47	1	self	1.5	NaN	blue	1	left	left	GLO	none	close	1	intact	intact	32a37ce7-a199-40eb-b5c5-b974866ffc28_fps_avg_aud.mp4	0	0	NaN	NaN	NaN	none	none	NaN	0	0
400	3	48	1	self	1.5	NaN	blue	0	up	up	GLO	none	far	1	intact	intact	637444dd-82ca-432a-beab-7eb721de8b71_fps_avg_aud.mp4	0	0	NaN	NaN	NaN	none	none	NaN	0	0
400	3	49	1	self	1.5	NaN	green	1	up	up	GLO	none	close	1	intact	intact	21ca1f40-8184-4506-9096-1849a40e04e2_fps_avg_aud.mp4	0	0	NaN	NaN	NaN	none	none	NaN	0	0
400	3	50	1	self	1.5	NaN	red	1	left	left	GLO	none	far	1	intact	intact	Jan11_fps_avg_aud.mp4	0	0	NaN	NaN	NaN	none	none	NaN	0	0
400	3	51	1	self	1.5	NaN	red	1	right	right	GLO	none	far	1	intact	intact	Jun5_fps_avg_aud.mp4	0	0	NaN	NaN	NaN	none	none	NaN	0	0
400	3	52	1	self	1.5	NaN	red	0	down	down	GLO	none	far	1	intact	intact	d1495dc6-3264-40ae-807f-007f3ab4bdee_fps_avg_aud.mp4	0	0	NaN	NaN	NaN	none	none	NaN	0	0
400	3	53	1	self	1.5	NaN	red	1	right	right	GLO	none	close	1	intact	intact	8131cc16-56a9-45d8-8dab-20ead5938e0a_fps_avg_aud.mp4	0	0	NaN	NaN	NaN	none	none	NaN	0	0
400	3	54	1	self	1.5	NaN	blue	0	up	up	GLO	none	close	1	intact	intact	690b1209-9514-4bd6-9698-3a990594f223_fps_avg_aud.mp4	0	0	NaN	NaN	NaN	none	none	NaN	0	0
400	3	55	1	self	1.5	NaN	yellow	1	up	up	GLO	none	close	1	intact	intact	f5740bdb-f6a7-4842-9fa8-065f8eed57f4_fps_avg_aud.mp4	0	0	NaN	NaN	NaN	none	none	NaN	0	0
400	3	56	1	self	1.5	NaN	green	1	up	up	GLO	none	far	1	intact	intact	October_2015_fps_avg_aud.mp4	0	0	NaN	NaN	NaN	none	none	NaN	0	0
400	3	57	1	self	1.5	NaN	yellow	0	left	left	GLO	none	close	1	intact	intact	Jan4_fps_avg_aud.mp4	0	0	NaN	NaN	NaN	none	none	NaN	0	0
400	3	58	1	self	1.5	NaN	yellow	1	right	right	GLO	none	close	1	intact	intact	98afb848-1bd2-46a6-89c7-32d60d6d1855_fps_avg_aud.mp4	0	0	NaN	NaN	NaN	none	none	NaN	0	0
400	3	59	1	self	1.5	NaN	yellow	1	right	right	GLO	none	far	1	intact	intact	11f7e237-860e-4d5b-9743-89fc16a3360b_fps_avg_aud.mp4	0	0	NaN	NaN	NaN	none	none	NaN	0	0
400	3	60	1	self	1.5	NaN	yellow	0	left	left	GLO	none	far	1	intact	intact	cb6ef54e-2b4c-4064-8d68-1ca2b2e8a47c_fps_avg_aud.mp4	0	0	NaN	NaN	NaN	none	none	NaN	0	0
400	3	61	1	self	1.5	NaN	yellow	0	left	left	GLO	none	far	1	intact	intact	cc0b25a9-3d1b-4c67-b1c5-5f27d60e59cb_fps_avg_aud.mp4	0	0	NaN	NaN	NaN	none	none	NaN	0	0
400	3	62	1	self	1.5	NaN	blue	0	up	up	GLO	none	close	1	intact	intact	745865b0-d7b3-440f-840d-03f3a3ef51b1_fps_avg_aud.mp4	0	0	NaN	NaN	NaN	none	none	NaN	0	0
400	3	63	1	self	1.5	NaN	blue	0	up	up	GLO	none	close	1	intact	intact	august_15_2016_fps_avg_aud.mp4	0	0	NaN	NaN	NaN	none	none	NaN	0	0
400	3	64	1	self	1.5	NaN	blue	1	down	down	GLO	none	close	1	intact	intact	b1dabac3-204f-4571-b892-69eb87e805d0_fps_avg_aud.mp4	0	0	NaN	NaN	NaN	none	none	NaN	0	0
400	3	65	1	self	1.5	NaN	yellow	0	left	left	GLO	none	close	1	intact	intact	a3e1ae8d-fc6e-4c2a-a65c-9024b3c9f810_fps_avg_aud.mp4	0	0	NaN	NaN	NaN	none	none	NaN	0	0
400	3	66	1	self	1.5	NaN	blue	1	right	right	GLO	none	far	1	intact	intact	705c0056-c7dd-4090-a27e-8956e33cb4b0_fps_avg_aud.mp4	0	0	NaN	NaN	NaN	none	none	NaN	0	0
400	3	67	1	self	1.5	NaN	green	0	right	right	GLO	none	close	1	intact	intact	fd4a95d6-f171-4c0b-8de2-e9ca909c9eff_fps_avg_aud.mp4	0	0	NaN	NaN	NaN	none	none	NaN	0	0
400	3	68	1	self	1.5	NaN	red	1	up	up	GLO	none	close	1	intact	intact	ec93e301-9c09-4bba-94b5-edac54ba0e07_fps_avg_aud.mp4	0	0	NaN	NaN	NaN	none	none	NaN	0	0
400	3	69	1	self	1.5	NaN	blue	0	up	up	GLO	none	close	1	intact	intact	342c3db7-0e7e-4cf9-b04c-0d7bba48d8bb_fps_avg_aud.mp4	0	0	NaN	NaN	NaN	none	none	NaN	0	0
400	3	70	1	self	1.5	NaN	yellow	1	right	right	GLO	none	far	1	intact	intact	e00791ee-f5a4-4315-8214-e183c3e1d2cf_fps_avg_aud.mp4	0	0	NaN	NaN	NaN	none	none	NaN	0	0
400	3	71	1	self	1.5	NaN	red	0	down	down	GLO	none	close	1	intact	intact	01eb0290-d17b-4697-b87a-733d1ecfc12d_fps_avg_aud.mp4	0	0	NaN	NaN	NaN	none	none	NaN	0	0
400	3	72	1	self	1.5	NaN	blue	0	up	up	GLO	none	far	1	intact	intact	de76edf3-7c24-4386-8e6c-01dd4c15291d_fps_avg_aud.mp4	0	0	NaN	NaN	NaN	none	none	NaN	0	0
400	3	73	1	self	1.5	NaN	green	0	right	right	GLO	none	close	1	intact	intact	Feb11_fps_avg_aud.mp4	0	0	NaN	NaN	NaN	none	none	NaN	0	0
400	3	74	1	self	1.5	NaN	green	1	up	up	GLO	none	close	1	intact	intact	db8b6c6f-c114-4747-8437-3bfc1210df49_fps_avg_aud.mp4	0	0	NaN	NaN	NaN	none	none	NaN	0	0
400	3	75	1	self	1.5	NaN	red	0	down	down	GLO	none	far	1	intact	intact	9e99d645-5200-4298-9c0f-4a18ab570a6d_fps_avg_aud.mp4	0	0	NaN	NaN	NaN	none	none	NaN	0	0
400	3	76	1	self	1.5	NaN	red	0	down	down	GLO	none	far	1	intact	intact	491c6b26-e39a-4650-ae90-8d66fc596b16_fps_avg_aud.mp4	0	0	NaN	NaN	NaN	none	none	NaN	0	0
400	3	77	1	self	1.5	NaN	blue	1	down	down	GLO	none	close	1	intact	intact	4f243f72-5a08-4b19-aa43-2448c9f0545d_fps_avg_aud.mp4	0	0	NaN	NaN	NaN	none	none	NaN	0	0
400	3	78	1	self	1.5	NaN	red	0	down	down	GLO	none	far	1	intact	intact	b30caa2d-af05-4325-9f3a-3d34dcb611e7_fps_avg_aud.mp4	0	0	NaN	NaN	NaN	none	none	NaN	0	0
400	3	79	1	self	1.5	NaN	red	1	left	left	GLO	none	close	1	intact	intact	0634b486-cb5f-4c95-88ac-759458166474_fps_avg_aud.mp4	0	0	NaN	NaN	NaN	none	none	NaN	0	0
400	3	80	1	self	1.5	NaN	yellow	0	left	left	GLO	none	far	1	intact	intact	July4_fps_avg_aud.mp4	0	0	NaN	NaN	NaN	none	none	NaN	0	0
400	3	81	1	self	1.5	NaN	green	1	down	down	GLO	none	close	1	intact	intact	86e20a10-46be-4f52-b05b-06877412cf60_fps_avg_aud.mp4	0	0	NaN	NaN	NaN	none	none	NaN	0	0
400	3	82	1	self	1.5	NaN	blue	1	down	down	GLO	none	far	1	intact	intact	ab1e6c91-a115-4b2d-8609-b4e2233254d6_fps_avg_aud.mp4	0	0	NaN	NaN	NaN	none	none	NaN	0	0
400	3	83	1	self	1.5	NaN	red	1	up	up	GLO	none	close	1	intact	intact	33a33f4c-72c6-457d-828e-a576d3e3a8e3_fps_avg_aud.mp4	0	0	NaN	NaN	NaN	none	none	NaN	0	0
400	3	84	1	self	1.5	NaN	red	1	left	left	GLO	none	close	1	intact	intact	december_2015_(4)_fps_avg_aud.mp4	0	0	NaN	NaN	NaN	none	none	NaN	0	0
400	3	85	1	self	1.5	NaN	yellow	1	down	down	GLO	none	far	1	intact	intact	7720ddf1-f518-43df-bdba-7009c0432e63_fps_avg_aud.mp4	0	0	NaN	NaN	NaN	none	none	NaN	0	0
400	3	86	1	self	1.5	NaN	yellow	0	left	left	GLO	none	far	1	intact	intact	6ce71e9b-76db-4300-af8c-23df366c03d0_fps_avg_aud.mp4	0	0	NaN	NaN	NaN	none	none	NaN	0	0
400	3	87	1	self	1.5	NaN	red	1	up	up	GLO	none	far	1	intact	intact	c939d2dd-f401-4cdf-bab0-fe7457cad0a4_fps_avg_aud.mp4	0	0	NaN	NaN	NaN	none	none	NaN	0	0
400	3	88	1	self	1.5	NaN	red	1	right	right	GLO	none	far	1	intact	intact	Dec27_fps_avg_aud.mp4	0	0	NaN	NaN	NaN	none	none	NaN	0	0
400	3	89	1	self	1.5	NaN	green	0	right	right	GLO	none	close	1	intact	intact	ae455cc0-190e-4a3d-907c-79f241176900_fps_avg_aud.mp4	0	0	NaN	NaN	NaN	none	none	NaN	0	0
400	3	90	1	self	1.5	NaN	red	1	right	right	GLO	none	close	1	intact	intact	2ee32cdc-eb1b-4b14-b0d7-fb25b7ed46e3_fps_avg_aud.mp4	0	0	NaN	NaN	NaN	none	none	NaN	0	0
400	3	91	1	self	1.5	NaN	yellow	0	left	left	GLO	none	close	1	intact	intact	7ef90bcf-5b2a-4df5-b522-5d3f1e9badf1_fps_avg_aud.mp4	0	0	NaN	NaN	NaN	none	none	NaN	0	0
400	3	92	1	self	1.5	NaN	green	0	right	right	GLO	none	far	1	intact	intact	9bd7a199-78f1-4f14-9fde-3a11c0ebd236_fps_avg_aud.mp4	0	0	NaN	NaN	NaN	none	none	NaN	0	0
400	3	93	1	self	1.5	NaN	green	1	down	down	GLO	none	close	1	intact	intact	647890e0-5689-43cf-86ab-b37e61076130_fps_avg_aud.mp4	0	0	NaN	NaN	NaN	none	none	NaN	0	0
400	4	1	0	self	0.5	0.516052	red	0	down	down	GLO	left	close	1	intact	intact	149f1481-9792-4892-beba-4137601f26a6_fps_avg_aud.mp4	0	0	1.25117	0	1	down	red	1	0.001	low
400	4	2	0	self	0.5	0.516273	yellow	0	left	left	GLO	right	far	1	intact	intact	591cd28e-3b15-449a-b19f-e2e7cabcd7ba_fps_avg_aud.mp4	0	0	0.566447	0	1	left	yellow	1	0.002	low
400	4	3	0	self	0.5	0.516019	blue	1	right	right	GLO	right	close	1	intact	intact	7c00c850-e528-473f-895e-ee9be83c7963_fps_avg_aud.mp4	0	0	1.86684	0	1	up	blue	1	0.003	low
400	4	4	0	self	0.5	0.516875	green	1	up	up	GLO	left	far	1	intact	intact	63b4d034-af4a-4a03-8aa0-83818020367c_fps_avg_aud.mp4	0	0	1.38981	0	1	right	green	1	0.004	low
400	4	5	0	self	0.5	0.516642	green	1	up	up	GLO	right	far	1	intact	intact	d474c6db-95a4-4753-b361-ee940450cd55_fps_avg_aud.mp4	0	0	0.51646	0	1	right	green	1	0.005	low
400	4	6	0	self	0.5	0.517057	yellow	1	down	down	GLO	right	far	1	intact	intact	May_30_2016_fps_avg_aud.mp4	0	0	0.734026	0	1	left	yellow	1	0.006	low
400	4	7	0	self	0.5	0.517259	blue	0	up	up	GLO	right	far	1	intact	intact	5a4ed86a-8ef5-4056-813c-083746f26c03_fps_avg_aud.mp4	0	0	0.900159	0	1	up	blue	1	0.007	low
400	4	8	0	self	0.5	0.516496	blue	0	up	up	GLO	right	far	1	intact	intact	6d873e1d-8ad7-4688-a181-c3322982e4a6_fps_avg_aud.mp4	0	0	0.495199	0	1	up	blue	1	0.008	low
400	4	9	0	self	0.5	0.515824	yellow	0	left	left	GLO	right	close	1	intact	intact	8ef19348-df54-46b9-9672-f236fb24f042_fps_avg_aud.mp4	0	0	0.917367	0	1	left	yellow	1	0.009	low
400	4	10	0	self	0.5	0.51628	blue	1	right	right	GLO	left	close	1	intact	intact	July2_fps_avg_aud.mp4	0	0	0.684153	0	1	up	blue	1	0.01	low
400	4	11	0	self	0.5	0.517278	blue	1	right	right	GLO	right	close	1	intact	intact	491c6b26-e39a-4650-ae90-8d66fc596b16_fps_avg_aud.mp4	0	0	0.666531	0	1	up	blue	1	0.011	low
400	4	12	0	self	0.5	0.515939	red	1	right	right	GLO	left	close	1	intact	intact	7cff1761-7eb4-4352-9fd6-437bff370f37_fps_avg_aud.mp4	0	0	0.96601	0	1	down	red	1	0.012	low
400	4	13	0	self	0.5	0.516095	green	0	right	right	GLO	left	close	1	intact	intact	592c03b4-010b-4f30-8521-fbf254e827b0_fps_avg_aud.mp4	1	756	3.78341	2.9396	2	right	green	1	0.013	low
400	4	14	0	self	0.5	0.516128	green	0	right	right	GLO	right	close	1	intact	intact	Feb19_fps_avg_aud.mp4	0	0	0.500852	0	1	right	green	1	0.014	low
400	4	15	0	self	0.5	0.516835	red	0	down	down	GLO	right	far	1	intact	intact	32a37ce7-a199-40eb-b5c5-b974866ffc28_fps_avg_aud.mp4	0	0	0.667142	0	1	down	red	1	0.015	low
400	4	16	0	self	0.5	0.516659	green	0	right	right	GLO	left	far	1	intact	intact	Apr30_fps_avg_aud.mp4	0	0	0.783484	0	1	right	green	1	0.016	low
400	4	17	0	self	0.5	0.515605	red	1	right	right	GLO	left	far	1	intact	intact	Dec11_fps_avg_aud.mp4	0	0	0.974974	0	1	down	red	1	0.017	low
400	4	18	0	self	0.5	0.517158	blue	0	up	up	GLO	right	close	1	intact	intact	f9a11fba-d584-4a74-ba4f-e5eb4ac62b73_fps_avg_aud.mp4	0	0	0.567005	0	1	up	blue	1	0.018	low
400	4	19	0	self	0.5	0.517031	green	1	left	left	GLO	left	close	1	intact	intact	334b06e5-5a99-4c23-b82f-0b02017f9d2e_fps_avg_aud.mp4	1	165	1.41063	0.744713	2	right	green	1	0.019	low
400	4	20	0	self	0.5	0.516814	red	1	right	right	GLO	left	close	1	intact	intact	21ca1f40-8184-4506-9096-1849a40e04e2_fps_avg_aud.mp4	0	0	1.15041	0	1	down	red	1	0.02	low
400	4	21	0	self	0.5	0.516959	blue	1	right	right	GLO	left	far	1	intact	intact	483a899a-71a0-49cf-b2ba-f13374d6b0a8_fps_avg_aud.mp4	1	135	1.60863	0.688939	2	up	blue	1	0.021	low
400	4	22	0	self	0.5	0.515827	yellow	1	down	down	GLO	right	close	1	intact	intact	942f20a2-a776-400d-9488-0c1647ebd585_fps_avg_aud.mp4	0	0	0.861856	0	1	left	yellow	1	0.022	low
400	4	23	0	self	0.5	0.517195	blue	0	up	up	GLO	left	close	1	intact	intact	74863169-b4eb-4472-bb27-c309a4fed0aa_fps_avg_aud.mp4	0	0	0.667037	0	1	up	blue	1	0.023	low
400	4	24	0	self	0.5	0.516685	yellow	0	left	left	GLO	right	far	1	intact	intact	1ad967f4-1728-4eb7-88a5-9d6ad488c3b4_fps_avg_aud.mp4	1	16	1.15112	0.250524	1	left	yellow	1	0.024	low
400	4	25	0	self	0.5	0.517031	blue	1	down	down	GLO	left	far	1	intact	intact	november_5_2015_fps_avg_aud.mp4	0	0	2.49305	0	1	up	blue	1	0.025	low
400	4	26	0	self	0.5	0.516735	yellow	1	up	up	GLO	left	far	1	intact	intact	1fd9b798-493d-4dfc-a8df-678bad207055_fps_avg_aud.mp4	0	0	0.601365	0	1	right	green	0	0.024	low
400	4	27	0	self	0.5	0.517071	red	1	left	left	GLO	left	close	1	intact	intact	Mar23_fps_avg_aud.mp4	0	0	0.716783	0	1	left	yellow	0	0.023	low
400	4	28	0	self	0.5	0.516171	red	1	right	right	GLO	left	far	1	intact	intact	16ad27d6-0718-41b8-94e7-1c37789ce6cb_fps_avg_aud.mp4	0	0	0.583738	0	1	down	red	1	0.024	low
400	4	29	0	self	0.5	0.51699	blue	1	left	left	GLO	left	close	1	intact	intact	240bdf76-9a30-49ea-9534-079281412955_fps_avg_aud.mp4	0	0	2.6653	0	1	up	blue	1	0.025	low
400	4	30	0	self	0.5	0.516893	blue	0	up	up	GLO	left	far	1	intact	intact	Febraury_2016_fps_avg_aud.mp4	0	0	0.583237	0	1	up	blue	1	0.026	low
400	4	31	0	self	0.5	0.516061	yellow	1	up	up	GLO	right	far	1	intact	intact	Jun1_fps_avg_aud.mp4	0	0	1.30047	0	1	left	yellow	1	0.027	low
400	4	32	0	self	0.5	0.516825	red	0	down	down	GLO	right	far	1	intact	intact	d1495dc6-3264-40ae-807f-007f3ab4bdee_fps_avg_aud.mp4	0	0	0.956352	0	1	down	red	1	0.028	low
400	4	33	0	self	0.5	0.516384	blue	1	right	right	GLO	left	far	1	intact	intact	July_2015_fps_avg_aud.mp4	0	0	0.75116	0	1	up	blue	1	0.029	low
400	4	34	0	self	0.5	0.516044	red	0	down	down	GLO	left	far	1	intact	intact	db8b6c6f-c114-4747-8437-3bfc1210df49_fps_avg_aud.mp4	0	0	0.75733	0	1	down	red	1	0.03	low
400	4	35	0	self	0.5	0.516991	yellow	0	left	left	GLO	left	close	1	intact	intact	Oct1_fps_avg_aud.mp4	0	0	1.20076	0	1	left	yellow	1	0.031	low
400	4	36	0	self	0.5	0.516053	blue	0	up	up	GLO	left	far	1	intact	intact	fc42fffc-beb2-426f-85f8-fe9f11671486_fps_avg_aud.mp4	0	0	2.11711	0	1	up	blue	1	0.032	low
400	4	37	0	self	0.5	0.517106	yellow	0	left	left	GLO	left	close	1	intact	intact	210cd477-4b9d-42a8-810f-6df0d7615942_fps_avg_aud.mp4	0	0	0.649867	0	1	left	yellow	1	0.033	low
400	4	38	0	self	0.5	NaN	blue	0	up	up	GLO	none	far	1	intact	intact	6247a4ca-9a6e-47c1-91f4-5a9925a1c125_fps_avg_aud.mp4	0	0	NaN	NaN	NaN	none	none	NaN	0.033	low
400	4	39	0	self	0.5	NaN	yellow	1	down	down	GLO	none	far	1	intact	intact	b151d8a6-cbea-4f58-ab0f-6c21bc545c88_fps_avg_aud.mp4	0	0	NaN	NaN	NaN	none	none	NaN	0.033	low
400	4	40	0	self	0.5	NaN	yellow	0	left	left	GLO	none	far	1	intact	intact	959dfee9-c1d0-4643-9cbd-f9e818b706fa_fps_avg_aud.mp4	0	0	NaN	NaN	NaN	none	none	NaN	0.033	low
400	4	41	0	self	0.5	NaN	yellow	0	left	left	GLO	none	close	1	intact	intact	7ed41b90-fac5-42bc-94a9-a4d7f021d578_fps_avg_aud.mp4	0	0	NaN	NaN	NaN	none	none	NaN	0.033	low
400	4	42	0	self	0.5	NaN	blue	1	right	right	GLO	none	close	1	intact	intact	ea8c6916-8b70-4539-be72-29487b43dc07_fps_avg_aud.mp4	0	0	NaN	NaN	NaN	none	none	NaN	0.033	low
400	4	43	0	self	0.5	NaN	red	0	down	down	GLO	none	far	1	intact	intact	Dec30_fps_avg_aud.mp4	0	0	NaN	NaN	NaN	none	none	NaN	0.033	low
400	4	44	0	self	0.5	NaN	green	1	left	left	GLO	none	close	1	intact	intact	May7_fps_avg_aud.mp4	0	0	NaN	NaN	NaN	none	none	NaN	0.033	low
400	4	45	0	self	0.5	NaN	red	0	down	down	GLO	none	far	1	intact	intact	de8d0a62-04ca-452a-a478-93877cedee98_fps_avg_aud.mp4	0	0	NaN	NaN	NaN	none	none	NaN	0.033	low
400	4	46	0	self	0.5	NaN	yellow	1	right	right	GLO	none	close	1	intact	intact	de0e4ce1-0f87-4077-b69c-578049fe4691_fps_avg_aud.mp4	0	0	NaN	NaN	NaN	none	none	NaN	0.033	low
400	4	47	0	self	0.5	NaN	green	1	down	down	GLO	none	close	1	intact	intact	b4701d82-e6b3-47a6-bf5c-596818c9d778_fps_avg_aud.mp4	0	0	NaN	NaN	NaN	none	none	NaN	0.033	low
400	4	48	0	self	0.5	NaN	red	0	down	down	GLO	none	far	1	intact	intact	March_15_2016_fps_avg_aud.mp4	0	0	NaN	NaN	NaN	none	none	NaN	0.033	low
400	4	49	0	self	0.5	NaN	red	0	down	down	GLO	none	close	1	intact	intact	caf1693c-0eef-47ff-aee9-5348af86759e_fps_avg_aud.mp4	0	0	NaN	NaN	NaN	none	none	NaN	0.033	low
400	4	50	0	self	0.5	NaN	blue	1	down	down	GLO	none	far	1	intact	intact	f86e1967-f74c-492a-93b0-8eac09649762_fps_avg_aud.mp4	0	0	NaN	NaN	NaN	none	none	NaN	0.033	low
400	4	51	0	self	0.5	NaN	yellow	1	down	down	GLO	none	far	1	intact	intact	667c6586-78bc-49b6-b207-12bdfa8fdd9e_fps_avg_aud.mp4	0	0	NaN	NaN	NaN	none	none	NaN	0.033	low
400	4	52	0	self	0.5	NaN	yellow	1	down	down	GLO	none	far	1	intact	intact	Nmarch1222015_fps_avg_aud.mp4	0	0	NaN	NaN	NaN	none	none	NaN	0.033	low
400	4	53	0	self	0.5	NaN	red	0	down	down	GLO	none	far	1	intact	intact	f001cded-b985-4905-a6ac-c1793ff8fab2_fps_avg_aud.mp4	0	0	NaN	NaN	NaN	none	none	NaN	0.033	low
400	4	54	0	self	0.5	NaN	blue	0	up	up	GLO	none	far	1	intact	intact	af1072d0-b5fe-435b-b10d-545750eb973b_fps_avg_aud.mp4	0	0	NaN	NaN	NaN	none	none	NaN	0.033	low
400	4	55	0	self	0.5	NaN	yellow	1	right	right	GLO	none	close	1	intact	intact	5b8d6efa-e1ab-4dc5-b720-51d467e90859_fps_avg_aud.mp4	0	0	NaN	NaN	NaN	none	none	NaN	0.033	low
400	4	56	0	self	0.5	NaN	red	0	down	down	GLO	none	far	1	intact	intact	Apr19_fps_avg_aud.mp4	0	0	NaN	NaN	NaN	none	none	NaN	0.033	low
400	4	57	0	self	0.5	NaN	yellow	1	right	right	GLO	none	far	1	intact	intact	May19_fps_avg_aud.mp4	0	0	NaN	NaN	NaN	none	none	NaN	0.033	low
400	4	58	0	self	0.5	NaN	blue	1	down	down	GLO	none	far	1	intact	intact	17bc9968-edac-4234-b3eb-c8487676c442_fps_avg_aud.mp4	0	0	NaN	NaN	NaN	none	none	NaN	0.033	low
400	4	59	0	self	0.5	NaN	blue	0	up	up	GLO	none	far	1	intact	intact	5b4edd74-dc10-4920-b508-c0b2f21238c3_fps_avg_aud.mp4	0	0	NaN	NaN	NaN	none	none	NaN	0.033	low
400	4	60	0	self	0.5	NaN	green	0	right	right	GLO	none	far	1	intact	intact	Dec12_fps_avg_aud.mp4	0	0	NaN	NaN	NaN	none	none	NaN	0.033	low
400	4	61	0	self	0.5	NaN	blue	1	left	left	GLO	none	far	1	intact	intact	Jan30_fps_avg_aud.mp4	0	0	NaN	NaN	NaN	none	none	NaN	0.033	low
400	4	62	0	self	0.5	NaN	red	0	down	down	GLO	none	far	1	intact	intact	Feb8_fps_avg_aud.mp4	0	0	NaN	NaN	NaN	none	none	NaN	0.033	low
400	4	63	0	self	0.5	NaN	blue	1	left	left	GLO	none	close	1	intact	intact	Aug18_fps_avg_aud.mp4	0	0	NaN	NaN	NaN	none	none	NaN	0.033	low
400	4	64	0	self	0.5	NaN	green	0	right	right	GLO	none	close	1	intact	intact	a525e336-0ec0-4048-92cf-487e44952f5c_fps_avg_aud.mp4	0	0	NaN	NaN	NaN	none	none	NaN	0.033	low
400	4	65	0	self	0.5	NaN	yellow	1	right	right	GLO	none	close	1	intact	intact	Nov7_fps_avg_aud.mp4	0	0	NaN	NaN	NaN	none	none	NaN	0.033	low
400	4	66	0	self	0.5	NaN	red	0	down	down	GLO	none	far	1	intact	intact	8fc730b2-0fc1-4125-9e0e-c9ed1f9ab58a_fps_avg_aud.mp4	0	0	NaN	NaN	NaN	none	none	NaN	0.033	low
400	4	67	0	self	0.5	NaN	blue	1	left	left	GLO	none	far	1	intact	intact	Nov24_fps_avg_aud.mp4	0	0	NaN	NaN	NaN	none	none	NaN	0.033	low
400	4	68	0	self	0.5	NaN	red	0	down	down	GLO	none	far	1	intact	intact	Sep30_fps_avg_aud.mp4	0	0	NaN	NaN	NaN	none	none	NaN	0.033	low
400	4	69	0	self	0.5	NaN	red	1	up	up	GLO	none	far	1	intact	intact	august_15_2016_fps_avg_aud.mp4	0	0	NaN	NaN	NaN	none	none	NaN	0.033	low
400	4	70	0	self	0.5	NaN	red	1	up	up	GLO	none	close	1	intact	intact	cc1b0f3f-4b74-4315-bb6b-f6c5624cbee1(1)_fps_avg_aud.mp4	0	0	NaN	NaN	NaN	none	none	NaN	0.033	low
400	4	71	0	self	0.5	NaN	yellow	1	down	down	GLO	none	close	1	intact	intact	f5740bdb-f6a7-4842-9fa8-065f8eed57f4_fps_avg_aud.mp4	0	0	NaN	NaN	NaN	none	none	NaN	0.033	low
400	4	72	0	self	0.5	NaN	red	0	down	down	GLO	none	close	1	intact	intact	b2b0c46b-c908-4752-b5cb-16abe9f2c872_fps_avg_aud.mp4	0	0	NaN	NaN	NaN	none	none	NaN	0.033	low
400	4	73	0	self	0.5	NaN	blue	0	up	up	GLO	none	close	1	intact	intact	8131cc16-56a9-45d8-8dab-20ead5938e0a_fps_avg_aud.mp4	0	0	NaN	NaN	NaN	none	none	NaN	0.033	low
400	4	74	0	self	0.5	NaN	blue	1	left	left	GLO	none	close	1	intact	intact	bfb38b58-a56a-427a-a233-3b6663beed7c_fps_avg_aud.mp4	0	0	NaN	NaN	NaN	none	none	NaN	0.033	low
400	4	75	0	self	0.5	NaN	yellow	0	left	left	GLO	none	far	1	intact	intact	9e99d645-5200-4298-9c0f-4a18ab570a6d_fps_avg_aud.mp4	0	0	NaN	NaN	NaN	none	none	NaN	0.033	low
400	4	76	0	self	0.5	NaN	yellow	1	up	up	GLO	none	close	1	intact	intact	8b38af47-0b70-4682-ac0e-c7a415e91156_fps_avg_aud.mp4	0	0	NaN	NaN	NaN	none	none	NaN	0.033	low
400	4	77	0	self	0.5	NaN	green	1	left	left	GLO	none	close	1	intact	intact	25a8b4d4-d5c7-4aab-af49-84ebba90c3be_fps_avg_aud.mp4	0	0	NaN	NaN	NaN	none	none	NaN	0.033	low
400	4	78	0	self	0.5	NaN	green	1	down	down	GLO	none	far	1	intact	intact	may_28_2015_fps_avg_aud.mp4	0	0	NaN	NaN	NaN	none	none	NaN	0.033	low
400	4	79	0	self	0.5	NaN	green	0	right	right	GLO	none	far	1	intact	intact	ae961612-f052-4542-a69c-195487c48d51_fps_avg_aud.mp4	0	0	NaN	NaN	NaN	none	none	NaN	0.033	low
400	4	80	0	self	0.5	NaN	yellow	0	left	left	GLO	none	close	1	intact	intact	January_2016_(2)_fps_avg_aud.mp4	0	0	NaN	NaN	NaN	none	none	NaN	0.033	low
400	4	81	0	self	0.5	NaN	green	1	left	left	GLO	none	close	1	intact	intact	5f534c39-dfe8-4a8d-a678-c406bcf9154d_fps_avg_aud.mp4	0	0	NaN	NaN	NaN	none	none	NaN	0.033	low
400	4	82	0	self	0.5	NaN	green	0	right	right	GLO	none	close	1	intact	intact	deff750b-b4a4-440e-a47d-eb4c56f93a9d_fps_avg_aud.mp4	0	0	NaN	NaN	NaN	none	none	NaN	0.033	low
400	4	83	0	self	0.5	NaN	blue	0	up	up	GLO	none	close	1	intact	intact	Aug17_fps_avg_aud.mp4	0	0	NaN	NaN	NaN	none	none	NaN	0.033	low
400	4	84	0	self	0.5	NaN	red	0	down	down	GLO	none	far	1	intact	intact	b30caa2d-af05-4325-9f3a-3d34dcb611e7_fps_avg_aud.mp4	0	0	NaN	NaN	NaN	none	none	NaN	0.033	low
400	4	85	0	self	0.5	NaN	yellow	0	left	left	GLO	none	close	1	intact	intact	Jun30_fps_avg_aud.mp4	0	0	NaN	NaN	NaN	none	none	NaN	0.033	low
400	4	86	0	self	0.5	NaN	red	0	down	down	GLO	none	far	1	intact	intact	86e20a10-46be-4f52-b05b-06877412cf60_fps_avg_aud.mp4	0	0	NaN	NaN	NaN	none	none	NaN	0.033	low
400	4	87	0	self	0.5	NaN	red	1	left	left	GLO	none	close	1	intact	intact	Aug11_fps_avg_aud.mp4	0	0	NaN	NaN	NaN	none	none	NaN	0.033	low
400	4	88	0	self	0.5	NaN	blue	0	up	up	GLO	none	far	1	intact	intact	October_10_2016_(1)_fps_avg_aud.mp4	0	0	NaN	NaN	NaN	none	none	NaN	0.033	low
400	4	89	0	self	0.5	NaN	blue	1	down	down	GLO	none	far	1	intact	intact	abff9cfd-d67a-47e2-bc3f-92551e8414e2(1)_fps_avg_aud.mp4	0	0	NaN	NaN	NaN	none	none	NaN	0.033	low
400	4	90	0	self	0.5	NaN	green	0	right	right	GLO	none	far	1	intact	intact	5c88b1ee-81ac-4658-85d2-80068b2841d0_fps_avg_aud.mp4	0	0	NaN	NaN	NaN	none	none	NaN	0.033	low
400	4	91	0	self	0.5	NaN	red	0	down	down	GLO	none	close	1	intact	intact	April_20015_fps_avg_aud.mp4	0	0	NaN	NaN	NaN	none	none	NaN	0.033	low
400	4	92	0	self	0.5	NaN	red	1	up	up	GLO	none	far	1	intact	intact	Nov11_fps_avg_aud.mp4	0	0	NaN	NaN	NaN	none	none	NaN	0.033	low
400	4	93	0	self	0.5	NaN	blue	0	up	up	GLO	none	close	1	intact	intact	54a93c98-7413-4e40-aca3-12bf7a6220c7_fps_avg_aud.mp4	0	0	NaN	NaN	NaN	none	none	NaN	0.033	low
400	5	1	0	auto	0.5	0.516031	yellow	1	up	up	GLO	left	close	1	intact	intact	af1072d0-b5fe-435b-b10d-545750eb973b_fps_avg_aud.mp4	1	159	1.5503	0.61358	1	left	yellow	1	0.034	low
400	5	2	0	auto	0.5	0.516936	blue	1	right	right	GLO	right	far	1	intact	intact	July23_fps_avg_aud.mp4	1	43	0.800355	0.167511	1	up	blue	1	0.035	low
400	5	3	0	auto	0.5	0.51724	yellow	0	left	left	GLO	left	close	1	intact	intact	2016_fps_avg_aud.mp4	1	0	0.906241	0	1	left	yellow	1	0.036	low
400	5	4	0	auto	0.5	0.517359	yellow	0	left	left	GLO	right	close	0	intact	none	none	0	0	0.732838	0	1	left	yellow	1	0.037	low
400	5	5	0	auto	0.5	0.51698	green	0	right	right	GLO	left	close	1	intact	intact	July2_fps_avg_aud.mp4	1	0	0.560428	0	1	right	green	1	0.038	low
400	5	6	0	auto	0.5	0.517092	blue	1	left	left	GLO	right	far	0	intact	none	none	0	0	0.890944	0	1	up	blue	1	0.039	low
400	5	7	0	auto	0.5	0.516599	yellow	1	down	down	GLO	right	close	0	intact	none	none	0	0	1.75022	0	1	left	yellow	1	0.04	low
400	5	8	0	auto	0.5	0.516799	yellow	0	left	left	GLO	right	close	1	intact	intact	July3_fps_avg_aud.mp4	1	19	0.648692	0.0753259	1	left	yellow	1	0.041	low
400	5	9	0	auto	0.5	0.516295	red	0	down	down	GLO	left	close	1	intact	intact	d928ad07-fccb-4758-905a-ca2e2f1c06b6_fps_avg_aud.mp4	1	204	1.58301	0.994496	1	down	red	1	0.042	low
400	5	10	0	auto	0.5	0.517066	blue	1	right	right	GLO	left	far	1	intact	intact	16ad27d6-0718-41b8-94e7-1c37789ce6cb_fps_avg_aud.mp4	1	31	1.28349	0.116276	1	up	blue	1	0.043	low
400	5	11	0	auto	0.5	0.516959	yellow	1	right	right	GLO	left	far	0	intact	none	none	0	0	1.04625	0	1	left	yellow	1	0.044	low
400	5	12	0	auto	0.5	0.516807	blue	0	up	up	GLO	right	close	0	intact	none	none	0	0	0.578864	0	1	up	blue	1	0.045	low
400	5	13	0	auto	0.5	0.517384	yellow	0	left	left	GLO	left	close	1	intact	intact	Jun17_fps_avg_aud.mp4	1	65	0.643918	0.252699	1	left	yellow	1	0.046	low
400	5	14	0	auto	0.5	0.517371	red	0	down	down	GLO	right	close	1	intact	intact	May8_fps_avg_aud.mp4	1	2	0.618671	0.00321658	1	down	red	1	0.047	low
400	5	15	0	auto	0.5	0.516697	red	1	right	right	GLO	right	far	1	intact	intact	1affd9f8-27af-4e8b-9985-5f3abbee6931_fps_avg_aud.mp4	1	35	0.774819	0.13296	1	down	red	1	0.048	low
400	5	16	0	auto	0.5	0.517022	yellow	1	up	up	GLO	left	close	1	intact	intact	July4_fps_avg_aud.mp4	1	118	0.831199	0.481692	1	left	yellow	1	0.049	low
400	5	17	0	auto	0.5	0.517102	green	0	right	right	GLO	left	close	0	intact	none	none	0	0	1.2899	0	1	right	green	1	0.05	low
400	5	18	0	auto	0.5	0.516031	red	1	up	up	GLO	right	close	1	intact	intact	779aa7ea-420b-4390-a149-5f24d3acfbfd_fps_avg_aud.mp4	1	829	4.03316	3.61794	1	up	blue	0	0.049	low
400	5	19	0	auto	0.5	0.516499	red	1	right	right	GLO	right	close	0	intact	none	none	0	0	0.617003	0	1	up	blue	0	0.048	low
400	5	20	0	auto	0.5	0.516854	blue	0	up	up	GLO	left	far	1	intact	intact	cfde3402-3742-4dda-82a3-7c69c497e0f8_fps_avg_aud.mp4	1	749	3.81368	3.27401	2	up	blue	1	0.049	low
400	5	21	0	auto	0.5	0.515902	blue	1	right	right	GLO	left	far	1	intact	intact	Feb28_fps_avg_aud.mp4	1	339	1.71952	1.28234	1	up	blue	1	0.05	low
400	5	22	0	auto	0.5	0.516725	blue	0	up	up	GLO	right	close	0	intact	none	none	0	0	0.48319	0	1	up	blue	1	0.051	low
400	5	23	0	auto	0.5	0.51677	red	0	down	down	GLO	right	close	1	intact	intact	f252571c-093b-4ade-9187-cd198d1e3eb0_fps_avg_aud.mp4	1	76	0.619299	0.285596	1	down	red	1	0.052	low
400	5	24	0	auto	0.5	0.516992	red	0	down	down	GLO	right	far	0	intact	none	none	0	0	0.393417	0	1	down	red	1	0.053	low
400	5	25	0	auto	0.5	0.517023	green	1	down	down	GLO	left	far	0	intact	none	none	0	0	0.933025	0	1	right	green	1	0.054	low
400	5	26	0	auto	0.5	0.516085	red	0	down	down	GLO	right	close	0	intact	none	none	0	0	2.49374	0	1	down	red	1	0.055	low
400	5	27	0	auto	0.5	0.516016	green	1	down	down	GLO	left	close	1	intact	intact	8021b6b2-93f5-4b8a-981e-576768624e6e_fps_avg_aud.mp4	1	291	1.68265	1.14113	1	right	green	1	0.056	low
400	5	28	0	auto	0.5	0.517118	green	1	up	up	GLO	right	close	0	intact	none	none	0	0	0.516981	0	1	right	green	1	0.057	low
400	5	29	0	auto	0.5	0.515808	red	1	left	left	GLO	right	far	1	intact	intact	79c2a399-1c19-4b6a-a7be-ad19cd183d03_fps_avg_aud.mp4	1	224	3.48675	0.881218	2	down	red	1	0.058	low
400	5	30	0	auto	0.5	0.517119	blue	1	right	right	GLO	left	far	1	intact	intact	01eb0290-d17b-4697-b87a-733d1ecfc12d_fps_avg_aud.mp4	1	268	1.57256	1.16526	1	up	blue	1	0.059	low
400	5	31	0	auto	0.5	0.516562	green	1	left	left	GLO	left	close	1	intact	intact	c3c668bd-3353-4887-b3ff-6d0225f5629c_fps_avg_aud.mp4	1	373	1.96719	1.62063	1	right	green	1	0.06	low
400	5	32	0	auto	0.5	0.516994	green	0	right	right	GLO	left	far	0	intact	none	none	0	0	0.633351	0	1	right	green	1	0.061	low
400	5	33	0	auto	0.5	0.516754	yellow	1	down	down	GLO	right	far	1	intact	intact	Apr19_fps_avg_aud.mp4	1	12	1.73846	0.0561685	1	left	yellow	1	0.062	low
400	5	34	0	auto	0.5	NaN	red	1	left	left	GLO	none	far	1	intact	intact	75c41469-2e99-4ed0-b25f-04259686f11b_fps_avg_aud.mp4	0	0	NaN	NaN	NaN	none	none	NaN	0.062	low
400	5	35	0	auto	0.5	NaN	blue	1	down	down	GLO	none	close	1	intact	intact	960000ea-ab44-4258-8824-51f8fdf7a806_fps_avg_aud.mp4	0	0	NaN	NaN	NaN	none	none	NaN	0.062	low
400	5	36	0	auto	0.5	NaN	green	1	up	up	GLO	none	far	1	intact	intact	e6c6cdbe-2a63-4eeb-b544-6fc0a25dc157_fps_avg_aud.mp4	0	0	NaN	NaN	NaN	none	none	NaN	0.062	low
400	5	37	0	auto	0.5	NaN	yellow	0	left	left	GLO	none	far	0	intact	none	none	0	0	NaN	NaN	NaN	none	none	NaN	0.062	low
400	5	38	0	auto	0.5	NaN	blue	1	right	right	GLO	none	far	0	intact	none	none	0	0	NaN	NaN	NaN	none	none	NaN	0.062	low
400	5	39	0	auto	0.5	NaN	red	1	left	left	GLO	none	far	1	intact	intact	may_25_2015_fps_avg_aud.mp4	0	0	NaN	NaN	NaN	none	none	NaN	0.062	low
400	5	40	0	auto	0.5	NaN	yellow	1	up	up	GLO	none	far	0	intact	none	none	0	0	NaN	NaN	NaN	none	none	NaN	0.062	low
400	5	41	0	auto	0.5	NaN	green	0	right	right	GLO	none	far	1	intact	intact	5b49bfdf-720d-437c-bb4f-da8fd9a14bdf_fps_avg_aud.mp4	0	0	NaN	NaN	NaN	none	none	NaN	0.062	low
400	5	42	0	auto	0.5	NaN	green	0	right	right	GLO	none	close	0	intact	none	none	0	0	NaN	NaN	NaN	none	none	NaN	0.062	low
400	5	43	0	auto	0.5	NaN	yellow	0	left	left	GLO	none	far	1	intact	intact	Jnauary_2016_fps_avg_aud.mp4	0	0	NaN	NaN	NaN	none	none	NaN	0.062	low
400	5	44	0	auto	0.5	NaN	yellow	1	up	up	GLO	none	close	1	intact	intact	e4815a42-3a54-463e-aeba-1230af20106d_fps_avg_aud.mp4	0	0	NaN	NaN	NaN	none	none	NaN	0.062	low
400	5	45	0	auto	0.5	NaN	yellow	1	down	down	GLO	none	far	1	intact	intact	jan31_2016_fps_avg_aud.mp4	0	0	NaN	NaN	NaN	none	none	NaN	0.062	low
400	5	46	0	auto	0.5	NaN	red	0	down	down	GLO	none	far	1	intact	intact	Feb1_fps_avg_aud.mp4	0	0	NaN	NaN	NaN	none	none	NaN	0.062	low
400	5	47	0	auto	0.5	NaN	red	0	down	down	GLO	none	far	1	intact	intact	Jun1_fps_avg_aud.mp4	0	0	NaN	NaN	NaN	none	none	NaN	0.062	low
400	5	48	0	auto	0.5	NaN	red	0	down	down	GLO	none	far	1	intact	intact	May27_fps_avg_aud.mp4	0	0	NaN	NaN	NaN	none	none	NaN	0.062	low
400	5	49	0	auto	0.5	NaN	red	1	left	left	GLO	none	far	1	intact	intact	1c37d23d-fc2a-4933-8024-0106ebebe6c4_fps_avg_aud.mp4	0	0	NaN	NaN	NaN	none	none	NaN	0.062	low
400	5	50	0	auto	0.5	NaN	green	1	left	left	GLO	none	far	0	intact	none	none	0	0	NaN	NaN	NaN	none	none	NaN	0.062	low
400	5	51	0	auto	0.5	NaN	green	1	left	left	GLO	none	far	1	intact	intact	September_14_2016_fps_avg_aud.mp4	0	0	NaN	NaN	NaN	none	none	NaN	0.062	low
400	5	52	0	auto	0.5	NaN	green	0	right	right	GLO	none	close	1	intact	intact	Oct13_fps_avg_aud.mp4	0	0	NaN	NaN	NaN	none	none	NaN	0.062	low
400	5	53	0	auto	0.5	NaN	yellow	0	left	left	GLO	none	far	0	intact	none	none	0	0	NaN	NaN	NaN	none	none	NaN	0.062	low
400	5	54	0	auto	0.5	NaN	blue	1	down	down	GLO	none	close	1	intact	intact	bd5cc988-d64f-435a-a1d7-3a872e473f76_fps_avg_aud.mp4	0	0	NaN	NaN	NaN	none	none	NaN	0.062	low
400	5	55	0	auto	0.5	NaN	blue	0	up	up	GLO	none	close	1	intact	intact	Apr1_fps_avg_aud.mp4	0	0	NaN	NaN	NaN	none	none	NaN	0.062	low
400	5	56	0	auto	0.5	NaN	red	1	left	left	GLO	none	close	1	intact	intact	Mar19_fps_avg_aud.mp4	0	0	NaN	NaN	NaN	none	none	NaN	0.062	low
400	5	57	0	auto	0.5	NaN	red	1	up	up	GLO	none	close	1	intact	intact	f10531c5-f8e7-4f38-bd6c-28ce29d75760_fps_avg_aud.mp4	0	0	NaN	NaN	NaN	none	none	NaN	0.062	low
400	5	58	0	auto	0.5	NaN	red	0	down	down	GLO	none	far	1	intact	intact	Sep19_fps_avg_aud.mp4	0	0	NaN	NaN	NaN	none	none	NaN	0.062	low
400	5	59	0	auto	0.5	NaN	green	1	down	down	GLO	none	far	1	intact	intact	January_2016_(2)_fps_avg_aud.mp4	0	0	NaN	NaN	NaN	none	none	NaN	0.062	low
400	5	60	0	auto	0.5	NaN	red	0	down	down	GLO	none	close	0	intact	none	none	0	0	NaN	NaN	NaN	none	none	NaN	0.062	low
400	5	61	0	auto	0.5	NaN	blue	0	up	up	GLO	none	far	1	intact	intact	fb42eb92-ecec-41cf-8ef3-e4a7b0a219f1_fps_avg_aud.mp4	0	0	NaN	NaN	NaN	none	none	NaN	0.062	low
400	5	62	0	auto	0.5	NaN	yellow	1	up	up	GLO	none	far	0	intact	none	none	0	0	NaN	NaN	NaN	none	none	NaN	0.062	low
400	5	63	0	auto	0.5	NaN	green	1	left	left	GLO	none	close	0	intact	none	none	0	0	NaN	NaN	NaN	none	none	NaN	0.062	low
400	5	64	0	auto	0.5	NaN	blue	0	up	up	GLO	none	close	0	intact	none	none	0	0	NaN	NaN	NaN	none	none	NaN	0.062	low
400	5	65	0	auto	0.5	NaN	red	0	down	down	GLO	none	close	1	intact	intact	db8b6c6f-c114-4747-8437-3bfc1210df49_fps_avg_aud.mp4	0	0	NaN	NaN	NaN	none	none	NaN	0.062	low
400	5	66	0	auto	0.5	NaN	green	0	right	right	GLO	none	far	1	intact	intact	June_2016_(2)_fps_avg_aud.mp4	0	0	NaN	NaN	NaN	none	none	NaN	0.062	low
400	5	67	0	auto	0.5	NaN	blue	0	up	up	GLO	none	far	0	intact	none	none	0	0	NaN	NaN	NaN	none	none	NaN	0.062	low
400	5	68	0	auto	0.5	NaN	red	0	down	down	GLO	none	far	0	intact	none	none	0	0	NaN	NaN	NaN	none	none	NaN	0.062	low
400	5	69	0	auto	0.5	NaN	red	1	up	up	GLO	none	far	1	intact	intact	ab1e6c91-a115-4b2d-8609-b4e2233254d6_fps_avg_aud.mp4	0	0	NaN	NaN	NaN	none	none	NaN	0.062	low
400	5	70	0	auto	0.5	NaN	blue	1	left	left	GLO	none	far	1	intact	intact	deff750b-b4a4-440e-a47d-eb4c56f93a9d_fps_avg_aud.mp4	0	0	NaN	NaN	NaN	none	none	NaN	0.062	low
400	5	71	0	auto	0.5	NaN	blue	0	up	up	GLO	none	far	1	intact	intact	ec93e301-9c09-4bba-94b5-edac54ba0e07_fps_avg_aud.mp4	0	0	NaN	NaN	NaN	none	none	NaN	0.062	low
400	5	72	0	auto	0.5	NaN	yellow	0	left	left	GLO	none	close	1	intact	intact	Mar4_fps_avg_aud.mp4	0	0	NaN	NaN	NaN	none	none	NaN	0.062	low
400	5	73	0	auto	0.5	NaN	yellow	1	right	right	GLO	none	close	1	intact	intact	f08bb9b7-0409-482c-9084-de15481ab2b3_fps_avg_aud.mp4	0	0	NaN	NaN	NaN	none	none	NaN	0.062	low
400	5	74	0	auto	0.5	NaN	yellow	0	left	left	GLO	none	far	0	intact	none	none	0	0	NaN	NaN	NaN	none	none	NaN	0.062	low
400	5	75	0	auto	0.5	NaN	red	0	down	down	GLO	none	far	1	intact	intact	4f243f72-5a08-4b19-aa43-2448c9f0545d_fps_avg_aud.mp4	0	0	NaN	NaN	NaN	none	none	NaN	0.062	low
400	5	76	0	auto	0.5	NaN	red	1	up	up	GLO	none	close	1	intact	intact	25a8b4d4-d5c7-4aab-af49-84ebba90c3be_fps_avg_aud.mp4	0	0	NaN	NaN	NaN	none	none	NaN	0.062	low
400	5	77	0	auto	0.5	NaN	blue	0	up	up	GLO	none	close	1	intact	intact	61be81ef-2338-498f-a09a-fd23aea0f3ec_fps_avg_aud.mp4	0	0	NaN	NaN	NaN	none	none	NaN	0.062	low
400	5	78	0	auto	0.5	NaN	green	1	left	left	GLO	none	far	1	intact	intact	f22090a0-ec04-4dfd-99ca-7810b9650ec8_fps_avg_aud.mp4	0	0	NaN	NaN	NaN	none	none	NaN	0.062	low
400	5	79	0	auto	0.5	NaN	blue	1	left	left	GLO	none	close	1	intact	intact	801d308b-7fe8-4a7f-8ad6-dafa42c9e3af_fps_avg_aud.mp4	0	0	NaN	NaN	NaN	none	none	NaN	0.062	low
400	5	80	0	auto	0.5	NaN	green	0	right	right	GLO	none	far	1	intact	intact	beb38bd6-976e-468f-9f23-b6b41f12ce11_fps_avg_aud.mp4	0	0	NaN	NaN	NaN	none	none	NaN	0.062	low
400	5	81	0	auto	0.5	NaN	green	1	left	left	GLO	none	far	1	intact	intact	Oct19_fps_avg_aud.mp4	0	0	NaN	NaN	NaN	none	none	NaN	0.062	low
400	5	82	0	auto	0.5	NaN	green	0	right	right	GLO	none	far	0	intact	none	none	0	0	NaN	NaN	NaN	none	none	NaN	0.062	low
400	5	83	0	auto	0.5	NaN	green	0	right	right	GLO	none	far	0	intact	none	none	0	0	NaN	NaN	NaN	none	none	NaN	0.062	low
400	5	84	0	auto	0.5	NaN	green	1	down	down	GLO	none	far	0	intact	none	none	0	0	NaN	NaN	NaN	none	none	NaN	0.062	low
400	5	85	0	auto	0.5	NaN	green	0	right	right	GLO	none	far	1	intact	intact	e066eed1-ff30-4572-8429-cde771b0bc43_fps_avg_aud.mp4	0	0	NaN	NaN	NaN	none	none	NaN	0.062	low
400	5	86	0	auto	0.5	NaN	yellow	0	left	left	GLO	none	close	1	intact	intact	August_2015_fps_avg_aud.mp4	0	0	NaN	NaN	NaN	none	none	NaN	0.062	low
400	5	87	0	auto	0.5	NaN	yellow	1	up	up	GLO	none	far	0	intact	none	none	0	0	NaN	NaN	NaN	none	none	NaN	0.062	low
400	5	88	0	auto	0.5	NaN	red	0	down	down	GLO	none	close	1	intact	intact	9747c74d-dde2-4f34-b67e-0e02a9c1a69c_fps_avg_aud.mp4	0	0	NaN	NaN	NaN	none	none	NaN	0.062	low
400	5	89	0	auto	0.5	NaN	yellow	1	right	right	GLO	none	far	1	intact	intact	a444c8a7-2f60-4193-8052-530d5b35ed4c_fps_avg_aud.mp4	0	0	NaN	NaN	NaN	none	none	NaN	0.062	low
400	5	90	0	auto	0.5	NaN	green	0	right	right	GLO	none	far	0	intact	none	none	0	0	NaN	NaN	NaN	none	none	NaN	0.062	low
400	5	91	0	auto	0.5	NaN	red	1	right	right	GLO	none	far	1	intact	intact	Feb27_fps_avg_aud.mp4	0	0	NaN	NaN	NaN	none	none	NaN	0.062	low
400	5	92	0	auto	0.5	NaN	yellow	1	right	right	GLO	none	close	1	intact	intact	76b50970-7143-4993-96e1-54ee18b8278e_fps_avg_aud.mp4	0	0	NaN	NaN	NaN	none	none	NaN	0.062	low
400	5	93	0	auto	0.5	NaN	green	1	left	left	GLO	none	close	0	intact	none	none	0	0	NaN	NaN	NaN	none	none	NaN	0.062	low
400	6	1	0	self	0.5	0.516077	green	1	up	up	GLO	left	close	1	intact	intact	0096623f-bd93-48df-96f9-85a0a749a586_fps_avg_aud.mp4	0	0	0.933872	0	1	right	green	1	0.072	high
400	6	2	0	self	0.5	0.516745	yellow	0	left	left	GLO	left	far	1	intact	intact	August_2015_fps_avg_aud.mp4	0	0	0.598748	0	1	left	yellow	1	0.082	high
400	6	3	0	self	0.5	0.516736	red	0	down	down	GLO	right	far	1	intact	intact	Feb14_fps_avg_aud.mp4	0	0	0.846911	0	1	down	red	1	0.092	high
400	6	4	0	self	0.5	0.517029	blue	0	up	up	GLO	right	close	1	intact	intact	May27_fps_avg_aud.mp4	0	0	0.399678	0	1	up	blue	1	0.102	high
400	6	5	0	self	0.5	0.517214	yellow	0	left	left	GLO	left	close	1	intact	intact	a66e9cf1-4573-4450-a822-0bcc91474968_fps_avg_aud.mp4	0	0	0.500191	0	1	left	yellow	1	0.112	high
400	6	6	0	self	0.5	0.516047	red	1	left	left	GLO	right	close	1	intact	intact	fd318c50-e133-4dc8-918b-b97094aebdf0_fps_avg_aud.mp4	0	0	0.783068	0	1	down	red	1	0.122	high
400	6	7	0	self	0.5	0.517194	red	1	right	right	GLO	right	close	1	intact	intact	0fca764b-7147-4307-96dc-cc1807afd905_fps_avg_aud.mp4	0	0	0.599751	0	1	down	red	1	0.132	high
400	6	8	0	self	0.5	0.517123	blue	0	up	up	GLO	left	far	1	intact	intact	06fe833b-37ac-4f46-b915-fda1c2b107fe_fps_avg_aud.mp4	0	0	1.0088	0	1	up	blue	1	0.142	high
400	6	9	0	self	0.5	0.516213	red	1	up	up	GLO	right	close	1	intact	intact	e00791ee-f5a4-4315-8214-e183c3e1d2cf_fps_avg_aud.mp4	0	0	0.783323	0	1	down	red	1	0.152	high
400	6	10	0	self	0.5	0.516924	yellow	1	down	down	GLO	left	far	1	intact	intact	8c9efcf8-40ef-4975-90f5-9d2449140a05_fps_avg_aud.mp4	0	0	0.783622	0	1	left	yellow	1	0.162	high
400	6	11	0	self	0.5	0.516762	blue	0	up	up	GLO	right	far	1	intact	intact	17cb4c50-a413-43aa-8ef1-30df975b04f4_fps_avg_aud.mp4	0	0	1.1001	0	1	up	blue	1	0.172	high
400	6	12	0	self	0.5	0.516646	red	0	down	down	GLO	left	close	1	intact	intact	Jan30_fps_avg_aud.mp4	0	0	0.499897	0	1	down	red	1	0.182	high
400	6	13	0	self	0.5	0.516852	blue	0	up	up	GLO	right	far	1	intact	intact	02c095ee-b711-4594-b27d-87092fa292bb_fps_avg_aud.mp4	0	0	1.09489	0	1	up	blue	1	0.192	high
400	6	14	0	self	0.5	0.516182	yellow	0	left	left	GLO	right	far	1	intact	intact	May19_fps_avg_aud.mp4	0	0	0.613805	0	1	left	yellow	1	0.202	high
400	6	15	0	self	0.5	0.517201	green	1	up	up	GLO	right	close	1	intact	intact	October_4_2015_fps_avg_aud.mp4	0	0	2.86148	0	1	right	green	1	0.212	high
400	6	16	0	self	0.5	0.516046	red	1	right	right	GLO	left	far	1	intact	intact	b03a76d5-df04-4f1c-a621-096b7428dc43_fps_avg_aud.mp4	0	0	1.16718	0	1	down	red	1	0.222	high
400	6	17	0	self	0.5	0.51676	red	0	down	down	GLO	right	close	1	intact	intact	c5792f9d-c420-493b-acf2-46528babd08c_fps_avg_aud.mp4	0	0	0.624922	0	1	down	red	1	0.232	high
400	6	18	0	self	0.5	0.516231	red	1	right	right	GLO	right	far	1	intact	intact	aef9b535-d7ad-47d4-adb8-d3ac2abf6652_fps_avg_aud.mp4	0	0	0.684162	0	1	down	red	1	0.242	high
400	6	19	0	self	0.5	0.516874	green	0	right	right	GLO	right	close	1	intact	intact	d1495dc6-3264-40ae-807f-007f3ab4bdee_fps_avg_aud.mp4	0	0	1.17531	0	1	right	green	1	0.252	high
400	6	20	0	self	0.5	0.516443	yellow	1	down	down	GLO	right	close	1	intact	intact	de76edf3-7c24-4386-8e6c-01dd4c15291d_fps_avg_aud.mp4	0	0	0.563362	0	1	left	yellow	1	0.262	high
400	6	21	0	self	0.5	0.516873	red	0	down	down	GLO	right	close	1	intact	intact	Nmarch1222015_fps_avg_aud.mp4	1	94	2.39441	0.35104	2	down	red	1	0.272	high
400	6	22	0	self	0.5	0.516273	blue	0	up	up	GLO	left	far	1	intact	intact	beb38bd6-976e-468f-9f23-b6b41f12ce11_fps_avg_aud.mp4	0	0	2.35039	0	1	up	blue	1	0.282	high
400	6	23	0	self	0.5	0.516563	blue	0	up	up	GLO	left	far	1	intact	intact	ea8c6916-8b70-4539-be72-29487b43dc07_fps_avg_aud.mp4	1	189	1.30862	0.66327	2	up	blue	1	0.292	high
400	6	24	0	self	0.5	0.515867	blue	1	right	right	GLO	right	far	1	intact	intact	6d873e1d-8ad7-4688-a181-c3322982e4a6_fps_avg_aud.mp4	0	0	1.75148	0	1	up	blue	1	0.302	high
400	6	25	0	self	0.5	0.516329	red	0	down	down	GLO	left	close	1	intact	intact	Jun19_fps_avg_aud.mp4	0	0	0.600035	0	1	down	red	1	0.312	high
400	6	26	0	self	0.5	0.515907	blue	1	left	left	GLO	right	close	1	intact	intact	January_2016_fps_avg_aud.mp4	0	0	0.850362	0	1	up	blue	1	0.322	high
400	6	27	0	self	0.5	0.5166	blue	0	up	up	GLO	left	close	1	intact	intact	9df4c83d-45cc-4501-be4d-279a04192ba4_fps_avg_aud.mp4	0	0	0.733877	0	1	up	blue	1	0.332	high
400	6	28	0	self	0.5	0.516796	blue	0	up	up	GLO	left	close	1	intact	intact	Feb1_fps_avg_aud.mp4	0	0	0.982738	0	1	up	blue	1	0.342	high
400	6	29	0	self	0.5	0.516936	red	0	down	down	GLO	left	far	1	intact	intact	359d82dd-3d4c-4029-a89b-66422745c056_fps_avg_aud.mp4	0	0	0.550952	0	1	down	red	1	0.352	high
400	6	30	0	self	0.5	0.516471	red	1	right	right	GLO	right	far	1	intact	intact	Jun6_fps_avg_aud.mp4	0	0	0.534106	0	1	down	red	1	0.362	high
400	6	31	0	self	0.5	0.516581	yellow	1	right	right	GLO	left	close	1	intact	intact	Dec4_fps_avg_aud.mp4	0	0	1.77473	0	1	left	yellow	1	0.372	high
400	6	32	0	self	0.5	0.516487	red	0	down	down	GLO	left	far	1	intact	intact	bd6f74c6-a8d8-4bf6-bf1e-d008c6733318_fps_avg_aud.mp4	0	0	1.23309	0	1	down	red	1	0.382	high
400	6	33	0	self	0.5	0.517584	blue	1	right	right	GLO	right	far	1	intact	intact	Feb7_fps_avg_aud.mp4	0	0	2.31648	0	1	up	blue	1	0.392	high
400	6	34	0	self	0.5	0.516865	red	0	down	down	GLO	left	far	1	intact	intact	Apr30_fps_avg_aud.mp4	0	0	0.548587	0	1	down	red	1	0.402	high
400	6	35	0	self	0.5	0.516462	yellow	0	left	left	GLO	left	close	1	intact	intact	May7_fps_avg_aud.mp4	0	0	1.04982	0	1	left	yellow	1	0.412	high
400	6	36	0	self	0.5	0.516895	yellow	0	left	left	GLO	right	close	1	intact	intact	Jan1_fps_avg_aud.mp4	0	0	0.476253	0	1	left	yellow	1	0.422	high
400	6	37	0	self	0.5	0.515896	green	1	up	up	GLO	right	close	1	intact	intact	0ab2bdff-924c-46d2-b610-671d6f4f673e_fps_avg_aud.mp4	0	0	0.666807	0	1	right	green	1	0.432	high
400	6	38	0	self	0.5	0.51604	green	0	right	right	GLO	left	far	1	intact	intact	31c3bae2-faf4-4718-b53b-2e88624b3fa5_fps_avg_aud.mp4	0	0	0.467114	0	1	right	green	1	0.442	high
400	6	39	0	self	0.5	0.515964	blue	0	up	up	GLO	right	far	1	intact	intact	79665cdb-61c8-40fb-9ffc-0682e57caf2f_fps_avg_aud.mp4	0	0	0.666327	0	1	up	blue	1	0.452	high
400	6	40	0	self	0.5	NaN	yellow	1	up	up	GLO	none	close	1	intact	intact	089179b5-68cb-4167-89fa-52f69549f728_fps_avg_aud.mp4	0	0	NaN	NaN	NaN	none	none	NaN	0.452	high
400	6	41	0	self	0.5	NaN	blue	0	up	up	GLO	none	close	1	intact	intact	4db3f410-b7dd-4157-a876-374c50f0a479_fps_avg_aud.mp4	0	0	NaN	NaN	NaN	none	none	NaN	0.452	high
400	6	42	0	self	0.5	NaN	blue	1	down	down	GLO	none	close	1	intact	intact	Apr15_fps_avg_aud.mp4	0	0	NaN	NaN	NaN	none	none	NaN	0.452	high
400	6	43	0	self	0.5	NaN	blue	0	up	up	GLO	none	close	1	intact	intact	0f23035e-0077-49bd-b516-950aa27b63b5_fps_avg_aud.mp4	0	0	NaN	NaN	NaN	none	none	NaN	0.452	high
400	6	44	0	self	0.5	NaN	blue	0	up	up	GLO	none	close	1	intact	intact	5b8d6efa-e1ab-4dc5-b720-51d467e90859_fps_avg_aud.mp4	0	0	NaN	NaN	NaN	none	none	NaN	0.452	high
400	6	45	0	self	0.5	NaN	red	1	left	left	GLO	none	close	1	intact	intact	ede4a096-21dc-4ed4-9b28-6df0a7f6fe6b_fps_avg_aud.mp4	0	0	NaN	NaN	NaN	none	none	NaN	0.452	high
400	6	46	0	self	0.5	NaN	yellow	0	left	left	GLO	none	close	1	intact	intact	Nov11_fps_avg_aud.mp4	0	0	NaN	NaN	NaN	none	none	NaN	0.452	high
400	6	47	0	self	0.5	NaN	blue	0	up	up	GLO	none	far	1	intact	intact	e5ba6207-d3a1-4e68-9c36-3fbb5658f232_fps_avg_aud.mp4	0	0	NaN	NaN	NaN	none	none	NaN	0.452	high
400	6	48	0	self	0.5	NaN	yellow	0	left	left	GLO	none	far	1	intact	intact	92171dfa-1474-4f0d-8c37-ab1d226fa154(1)_fps_avg_aud.mp4	0	0	NaN	NaN	NaN	none	none	NaN	0.452	high
400	6	49	0	self	0.5	NaN	yellow	1	up	up	GLO	none	far	1	intact	intact	October_2015_fps_avg_aud.mp4	0	0	NaN	NaN	NaN	none	none	NaN	0.452	high
400	6	50	0	self	0.5	NaN	red	1	left	left	GLO	none	close	1	intact	intact	Mar23_fps_avg_aud.mp4	0	0	NaN	NaN	NaN	none	none	NaN	0.452	high
400	6	51	0	self	0.5	NaN	yellow	0	left	left	GLO	none	far	1	intact	intact	e066eed1-ff30-4572-8429-cde771b0bc43_fps_avg_aud.mp4	0	0	NaN	NaN	NaN	none	none	NaN	0.452	high
400	6	52	0	self	0.5	NaN	red	1	right	right	GLO	none	close	1	intact	intact	7c00c850-e528-473f-895e-ee9be83c7963_fps_avg_aud.mp4	0	0	NaN	NaN	NaN	none	none	NaN	0.452	high
400	6	53	0	self	0.5	NaN	blue	0	up	up	GLO	none	far	1	intact	intact	January_10_2016_fps_avg_aud.mp4	0	0	NaN	NaN	NaN	none	none	NaN	0.452	high
400	6	54	0	self	0.5	NaN	red	0	down	down	GLO	none	far	1	intact	intact	639855c9-f7b0-4d31-8ca6-c12b36f03058_fps_avg_aud.mp4	0	0	NaN	NaN	NaN	none	none	NaN	0.452	high
400	6	55	0	self	0.5	NaN	yellow	0	left	left	GLO	none	far	1	intact	intact	Oct1_fps_avg_aud.mp4	0	0	NaN	NaN	NaN	none	none	NaN	0.452	high
400	6	56	0	self	0.5	NaN	yellow	1	up	up	GLO	none	far	1	intact	intact	October_14_2016_fps_avg_aud.mp4	0	0	NaN	NaN	NaN	none	none	NaN	0.452	high
400	6	57	0	self	0.5	NaN	yellow	0	left	left	GLO	none	far	1	intact	intact	02831e99-5ac8-4fc5-9e76-9a04224fb33e_fps_avg_aud.mp4	0	0	NaN	NaN	NaN	none	none	NaN	0.452	high
400	6	58	0	self	0.5	NaN	red	1	up	up	GLO	none	close	1	intact	intact	a3a57263-6857-435d-87b3-5c44ae53e10a_fps_avg_aud.mp4	0	0	NaN	NaN	NaN	none	none	NaN	0.452	high
400	6	59	0	self	0.5	NaN	yellow	0	left	left	GLO	none	far	1	intact	intact	c939d2dd-f401-4cdf-bab0-fe7457cad0a4_fps_avg_aud.mp4	0	0	NaN	NaN	NaN	none	none	NaN	0.452	high
400	6	60	0	self	0.5	NaN	green	1	left	left	GLO	none	close	1	intact	intact	648cf5a2-5dc9-46b3-bf61-9e51533fa6ad_fps_avg_aud.mp4	0	0	NaN	NaN	NaN	none	none	NaN	0.452	high
400	6	61	0	self	0.5	NaN	yellow	1	right	right	GLO	none	far	1	intact	intact	Mar4_fps_avg_aud.mp4	0	0	NaN	NaN	NaN	none	none	NaN	0.452	high
400	6	62	0	self	0.5	NaN	red	0	down	down	GLO	none	close	1	intact	intact	ed5c9b46-1903-43ac-bc9d-4681004c3550_fps_avg_aud.mp4	0	0	NaN	NaN	NaN	none	none	NaN	0.452	high
400	6	63	0	self	0.5	NaN	blue	1	right	right	GLO	none	close	1	intact	intact	4f243f72-5a08-4b19-aa43-2448c9f0545d_fps_avg_aud.mp4	0	0	NaN	NaN	NaN	none	none	NaN	0.452	high
400	6	64	0	self	0.5	NaN	red	0	down	down	GLO	none	close	1	intact	intact	7fe27e44-a1be-4335-89c2-e510e239df64_fps_avg_aud.mp4	0	0	NaN	NaN	NaN	none	none	NaN	0.452	high
400	6	65	0	self	0.5	NaN	yellow	0	left	left	GLO	none	close	1	intact	intact	Jun24_fps_avg_aud.mp4	0	0	NaN	NaN	NaN	none	none	NaN	0.452	high
400	6	66	0	self	0.5	NaN	yellow	1	down	down	GLO	none	close	1	intact	intact	Aug17_fps_avg_aud.mp4	0	0	NaN	NaN	NaN	none	none	NaN	0.452	high
400	6	67	0	self	0.5	NaN	yellow	1	right	right	GLO	none	close	1	intact	intact	Feb25_fps_avg_aud.mp4	0	0	NaN	NaN	NaN	none	none	NaN	0.452	high
400	6	68	0	self	0.5	NaN	yellow	1	right	right	GLO	none	far	1	intact	intact	9747c74d-dde2-4f34-b67e-0e02a9c1a69c_fps_avg_aud.mp4	0	0	NaN	NaN	NaN	none	none	NaN	0.452	high
400	6	69	0	self	0.5	NaN	green	0	right	right	GLO	none	close	1	intact	intact	b70b2fc0-8728-4c47-a0fd-a887a904f1ee_fps_avg_aud.mp4	0	0	NaN	NaN	NaN	none	none	NaN	0.452	high
400	6	70	0	self	0.5	NaN	red	1	up	up	GLO	none	far	1	intact	intact	Dec21_fps_avg_aud.mp4	0	0	NaN	NaN	NaN	none	none	NaN	0.452	high
400	6	71	0	self	0.5	NaN	green	1	up	up	GLO	none	close	1	intact	intact	June_112016_fps_avg_aud.mp4	0	0	NaN	NaN	NaN	none	none	NaN	0.452	high
400	6	72	0	self	0.5	NaN	blue	1	down	down	GLO	none	far	1	intact	intact	bfb0b536-e287-45e9-a605-3cba4dd07d9b_fps_avg_aud.mp4	0	0	NaN	NaN	NaN	none	none	NaN	0.452	high
400	6	73	0	self	0.5	NaN	red	1	left	left	GLO	none	far	1	intact	intact	cfead01b-2f72-4131-8069-3f2052f352e3_fps_avg_aud.mp4	0	0	NaN	NaN	NaN	none	none	NaN	0.452	high
400	6	74	0	self	0.5	NaN	blue	0	up	up	GLO	none	far	1	intact	intact	8ef19348-df54-46b9-9672-f236fb24f042_fps_avg_aud.mp4	0	0	NaN	NaN	NaN	none	none	NaN	0.452	high
400	6	75	0	self	0.5	NaN	green	1	up	up	GLO	none	far	1	intact	intact	cb6ef54e-2b4c-4064-8d68-1ca2b2e8a47c_fps_avg_aud.mp4	0	0	NaN	NaN	NaN	none	none	NaN	0.452	high
400	6	76	0	self	0.5	NaN	yellow	0	left	left	GLO	none	close	1	intact	intact	960000ea-ab44-4258-8824-51f8fdf7a806_fps_avg_aud.mp4	0	0	NaN	NaN	NaN	none	none	NaN	0.452	high
400	6	77	0	self	0.5	NaN	red	0	down	down	GLO	none	close	1	intact	intact	Apr1_fps_avg_aud.mp4	0	0	NaN	NaN	NaN	none	none	NaN	0.452	high
400	6	78	0	self	0.5	NaN	yellow	1	down	down	GLO	none	far	1	intact	intact	June_2016_fps_avg_aud.mp4	0	0	NaN	NaN	NaN	none	none	NaN	0.452	high
400	6	79	0	self	0.5	NaN	blue	1	right	right	GLO	none	far	1	intact	intact	Jul10_fps_avg_aud.mp4	0	0	NaN	NaN	NaN	none	none	NaN	0.452	high
400	6	80	0	self	0.5	NaN	red	0	down	down	GLO	none	far	1	intact	intact	Apr7_fps_avg_aud.mp4	0	0	NaN	NaN	NaN	none	none	NaN	0.452	high
400	6	81	0	self	0.5	NaN	green	0	right	right	GLO	none	far	1	intact	intact	f86e1967-f74c-492a-93b0-8eac09649762_fps_avg_aud.mp4	0	0	NaN	NaN	NaN	none	none	NaN	0.452	high
400	6	82	0	self	0.5	NaN	yellow	0	left	left	GLO	none	far	1	intact	intact	7ef90bcf-5b2a-4df5-b522-5d3f1e9badf1_fps_avg_aud.mp4	0	0	NaN	NaN	NaN	none	none	NaN	0.452	high
400	6	83	0	self	0.5	NaN	red	0	down	down	GLO	none	far	1	intact	intact	f7063dab-b99f-4ced-99a1-d8e067de3ccd_fps_avg_aud.mp4	0	0	NaN	NaN	NaN	none	none	NaN	0.452	high
400	6	84	0	self	0.5	NaN	red	0	down	down	GLO	none	far	1	intact	intact	Aug1_fps_avg_aud.mp4	0	0	NaN	NaN	NaN	none	none	NaN	0.452	high
400	6	85	0	self	0.5	NaN	yellow	0	left	left	GLO	none	close	1	intact	intact	339eedaf-ff90-439f-b68a-797258b27c12_fps_avg_aud.mp4	0	0	NaN	NaN	NaN	none	none	NaN	0.452	high
400	6	86	0	self	0.5	NaN	blue	1	left	left	GLO	none	close	1	intact	intact	34317ec5-8b9d-4b06-8954-49f3b4c2619c_fps_avg_aud.mp4	0	0	NaN	NaN	NaN	none	none	NaN	0.452	high
400	6	87	0	self	0.5	NaN	yellow	0	left	left	GLO	none	far	1	intact	intact	11bc07f6-cbc9-48b9-a240-792e373d6a2a_fps_avg_aud.mp4	0	0	NaN	NaN	NaN	none	none	NaN	0.452	high
400	6	88	0	self	0.5	NaN	yellow	0	left	left	GLO	none	far	1	intact	intact	ac670a32-9758-4aa8-b876-775cfe4f2e47_fps_avg_aud.mp4	0	0	NaN	NaN	NaN	none	none	NaN	0.452	high
400	6	89	0	self	0.5	NaN	yellow	0	left	left	GLO	none	close	1	intact	intact	b442d744-edd6-478c-94f1-be50e05465cc_fps_avg_aud.mp4	0	0	NaN	NaN	NaN	none	none	NaN	0.452	high
400	6	90	0	self	0.5	NaN	yellow	1	down	down	GLO	none	far	1	intact	intact	8fa6e47a-355a-4a52-986e-ef49886619e0_fps_avg_aud.mp4	0	0	NaN	NaN	NaN	none	none	NaN	0.452	high
400	6	91	0	self	0.5	NaN	green	1	left	left	GLO	none	close	1	intact	intact	a9843691-e4cb-4c12-aa70-47f2024c5698_fps_avg_aud.mp4	0	0	NaN	NaN	NaN	none	none	NaN	0.452	high
400	6	92	0	self	0.5	NaN	blue	0	up	up	GLO	none	close	1	intact	intact	Aug11_fps_avg_aud.mp4	0	0	NaN	NaN	NaN	none	none	NaN	0.452	high
400	6	93	0	self	0.5	NaN	red	0	down	down	GLO	none	far	1	intact	intact	january_31_2016_fps_avg_aud.mp4	0	0	NaN	NaN	NaN	none	none	NaN	0.452	high
400	7	1	0	auto	0.5	0.515983	blue	1	left	left	GLO	right	close	1	intact	intact	240bdf76-9a30-49ea-9534-079281412955_fps_avg_aud.mp4	1	171	0.958165	0.625931	6	up	blue	1	0.462	high
400	7	2	0	auto	0.5	0.516935	yellow	1	down	down	GLO	left	far	0	intact	none	none	0	0	1.79997	0	1	left	yellow	1	0.472	high
400	7	3	0	auto	0.5	0.517219	blue	1	down	down	GLO	left	close	0	intact	none	none	0	0	0.966242	0	1	up	blue	1	0.482	high
400	7	4	0	auto	0.5	0.516014	yellow	1	right	right	GLO	left	close	1	intact	intact	deff750b-b4a4-440e-a47d-eb4c56f93a9d_fps_avg_aud.mp4	1	431	2.38335	1.68246	2	left	yellow	1	0.492	high
400	7	5	0	auto	0.5	0.515673	green	1	left	left	GLO	right	far	0	intact	none	none	0	0	0.724727	0	1	right	green	1	0.502	high
400	7	6	0	auto	0.5	0.516188	green	0	right	right	GLO	left	close	1	intact	intact	491f864e-d652-4cca-82ba-d023f3192016_fps_avg_aud.mp4	1	98	0.91159	0.384181	1	right	green	1	0.512	high
