ID	Block	Trials	Practice	VideoStart	ITI	ITI_measured	Color	Conflict	Global	Local	Task	Video_pos	Video_dist	Video_present	Video_cat_cond	Video_cat	Video	VideoPlayed	VideoCheck	RT	DT	Visits	KeyPress	KeyColor	Correct	Reward	RewardCond
401	1	1	1	none	1.5	1.45611	green	0	right	right	GLO	right	close	0	intact	none	none	0	0	1.32907	0	1	right	green	1	0	0
401	1	2	1	none	1.5	1.51667	red	0	down	down	GLO	left	far	0	intact	none	none	0	0	1.09895	0	1	down	red	1	0	0
401	1	3	1	none	1.5	1.51639	red	1	left	left	GLO	right	far	0	intact	none	none	0	0	2.22097	0	1	left	yellow	0	0	0
401	1	4	1	none	1.5	1.51767	yellow	1	down	down	GLO	left	far	0	intact	none	none	0	0	1.35307	0	1	right	green	0	0	0
401	1	5	1	none	1.5	1.51662	yellow	0	left	left	GLO	right	far	0	intact	none	none	0	0	2.04547	0	1	up	blue	0	0	0
401	1	6	1	none	1.5	1.51704	blue	0	up	up	GLO	left	close	0	intact	none	none	0	0	1.52519	0	1	up	blue	1	0	0
401	1	7	1	none	1.5	1.51656	red	1	right	right	GLO	right	far	0	intact	none	none	0	0	1.24639	0	1	down	red	1	0	0
401	1	8	1	none	1.5	1.51731	yellow	1	down	down	GLO	left	far	0	intact	none	none	0	0	0.782014	0	1	right	green	0	0	0
401	1	9	1	none	1.5	1.51649	green	0	right	right	GLO	right	close	0	intact	none	none	0	0	0.793392	0	1	right	green	1	0	0
401	1	10	1	none	1.5	1.51649	red	1	left	left	GLO	right	close	0	intact	none	none	0	0	0.917117	0	1	left	yellow	0	0	0
401	1	11	1	none	1.5	1.5156	red	0	down	down	GLO	left	close	0	intact	none	none	0	0	0.899695	0	1	down	red	1	0	0
401	1	12	1	none	1.5	1.5168	green	1	up	up	GLO	left	close	0	intact	none	none	0	0	0.850998	0	1	right	green	1	0	0
401	1	13	1	none	1.5	1.51651	red	0	down	down	GLO	right	far	0	intact	none	none	0	0	1.03237	0	1	down	red	1	0	0
401	1	14	1	none	1.5	1.51651	red	0	down	down	GLO	right	far	0	intact	none	none	0	0	0.666594	0	1	down	red	1	0	0
401	1	15	1	none	1.5	1.51627	red	1	up	up	GLO	right	close	0	intact	none	none	0	0	0.98364	0	1	down	red	1	0	0
401	1	16	1	none	1.5	1.51639	green	0	right	right	GLO	left	close	0	intact	none	none	0	0	0.727761	0	1	right	green	1	0	0
401	1	17	1	none	1.5	1.51706	yellow	1	down	down	GLO	left	far	0	intact	none	none	0	0	0.851048	0	1	left	yellow	1	0	0
401	1	18	1	none	1.5	1.51646	yellow	1	up	up	GLO	right	close	0	intact	none	none	0	0	0.981578	0	1	left	yellow	1	0	0
401	1	19	1	none	1.5	1.51615	blue	0	up	up	GLO	right	close	0	intact	none	none	0	0	0.816034	0	1	up	blue	1	0	0
401	1	20	1	none	1.5	1.51698	red	0	down	down	GLO	right	far	0	intact	none	none	0	0	1.01262	0	1	right	green	0	0	0
401	1	21	1	none	1.5	1.51665	red	1	right	right	GLO	left	far	0	intact	none	none	0	0	0.810588	0	1	right	green	0	0	0
401	1	22	1	none	1.5	1.51658	yellow	0	left	left	GLO	left	far	0	intact	none	none	0	0	1.35076	0	1	left	yellow	1	0	0
401	1	23	1	none	1.5	1.51666	red	0	down	down	GLO	left	close	0	intact	none	none	0	0	1.4494	0	1	down	red	1	0	0
401	1	24	1	none	1.5	1.51614	yellow	1	right	right	GLO	right	close	0	intact	none	none	0	0	1.25113	0	1	right	green	0	0	0
401	1	25	1	none	1.5	1.51678	green	1	up	up	GLO	left	close	0	intact	none	none	0	0	1.17398	0	1	left	yellow	0	0	0
401	1	26	1	none	1.5	1.51623	blue	0	up	up	GLO	right	far	0	intact	none	none	0	0	0.983632	0	1	up	blue	1	0	0
401	1	27	1	none	1.5	1.51678	red	0	down	down	GLO	left	close	0	intact	none	none	0	0	1.05148	0	1	down	red	1	0	0
401	1	28	1	none	1.5	1.51692	red	0	down	down	GLO	left	close	0	intact	none	none	0	0	0.710063	0	1	down	red	1	0	0
401	1	29	1	none	1.5	1.517	blue	1	right	right	GLO	left	close	0	intact	none	none	0	0	0.766102	0	1	left	yellow	0	0	0
401	1	30	1	none	1.5	1.51611	red	0	down	down	GLO	left	close	0	intact	none	none	0	0	0.783405	0	1	down	red	1	0	0
401	1	31	1	none	1.5	1.51778	yellow	0	left	left	GLO	left	far	0	intact	none	none	0	0	0.922785	0	1	right	green	0	0	0
401	1	32	1	none	1.5	1.51653	red	0	down	down	GLO	right	close	0	intact	none	none	0	0	0.867714	0	1	down	red	1	0	0
401	1	33	1	none	0.5	0.516499	red	0	down	down	GLO	right	far	0	intact	none	none	0	0	0.683289	0	1	down	red	1	0	0
401	1	34	1	none	0.5	0.516126	blue	0	up	up	GLO	left	far	0	intact	none	none	0	0	0.701305	0	1	up	blue	1	0	0
401	1	35	1	none	0.5	0.516936	green	1	left	left	GLO	right	close	0	intact	none	none	0	0	1.05025	0	1	right	green	1	0	0
401	1	36	1	none	0.5	0.51687	red	1	right	right	GLO	right	far	0	intact	none	none	0	0	0.881992	0	1	down	red	1	0	0
401	1	37	1	none	0.5	0.516854	red	1	left	left	GLO	right	far	0	intact	none	none	0	0	0.882946	0	1	down	red	1	0	0
401	1	38	1	none	0.5	0.516979	blue	0	up	up	GLO	right	far	0	intact	none	none	0	0	0.633998	0	1	up	blue	1	0	0
401	1	39	1	none	0.5	0.517209	green	0	right	right	GLO	left	far	0	intact	none	none	0	0	0.900197	0	1	down	red	0	0	0
401	1	40	1	none	0.5	0.517882	blue	1	left	left	GLO	right	close	0	intact	none	none	0	0	0.912134	0	1	up	blue	1	0	0
401	1	41	1	none	0.5	0.517731	yellow	0	left	left	GLO	left	close	0	intact	none	none	0	0	0.716819	0	1	right	green	0	0	0
401	1	42	1	none	0.5	0.51637	yellow	0	left	left	GLO	left	close	0	intact	none	none	0	0	1.05034	0	1	right	green	0	0	0
401	1	43	1	none	0.5	0.516182	red	0	down	down	GLO	right	far	0	intact	none	none	0	0	0.767102	0	1	down	red	1	0	0
401	1	44	1	none	0.5	0.516451	yellow	0	left	left	GLO	left	far	0	intact	none	none	0	0	0.700129	0	1	left	yellow	1	0	0
401	1	45	1	none	0.5	0.516614	blue	1	down	down	GLO	left	far	0	intact	none	none	0	0	0.793494	0	1	up	blue	1	0	0
401	1	46	1	none	0.5	0.517222	red	1	right	right	GLO	right	close	0	intact	none	none	0	0	1.10844	0	1	left	yellow	0	0	0
401	1	47	1	none	0.5	0.517817	green	0	right	right	GLO	right	close	0	intact	none	none	0	0	0.932518	0	1	left	yellow	0	0	0
401	1	48	1	none	0.5	0.516523	yellow	1	right	right	GLO	right	close	0	intact	none	none	0	0	0.633933	0	1	right	green	0	0	0
401	1	49	1	none	0.5	0.516414	red	1	left	left	GLO	right	close	0	intact	none	none	0	0	1.00092	0	1	down	red	1	0	0
401	1	50	1	none	0.5	0.516221	yellow	0	left	left	GLO	left	close	0	intact	none	none	0	0	1.10113	0	1	left	yellow	1	0	0
401	1	51	1	none	0.5	0.516813	green	0	right	right	GLO	left	far	0	intact	none	none	0	0	1.03292	0	1	right	green	1	0	0
401	1	52	1	none	0.5	0.516322	green	1	left	left	GLO	right	far	0	intact	none	none	0	0	0.616752	0	1	right	green	1	0	0
401	1	53	1	none	0.5	0.5159	yellow	0	left	left	GLO	right	close	0	intact	none	none	0	0	1.22862	0	1	down	red	0	0	0
401	1	54	1	none	0.5	0.516707	red	0	down	down	GLO	left	close	0	intact	none	none	0	0	1.77853	0	1	down	red	1	0	0
401	1	55	1	none	0.5	0.515844	green	0	right	right	GLO	right	close	0	intact	none	none	0	0	0.734018	0	1	right	green	1	0	0
401	1	56	1	none	0.5	0.515701	green	1	left	left	GLO	left	far	0	intact	none	none	0	0	0.600572	0	1	right	green	1	0	0
401	1	57	1	none	0.5	0.517093	red	1	right	right	GLO	left	far	0	intact	none	none	0	0	0.700551	0	1	left	yellow	0	0	0
401	1	58	1	none	0.5	0.516369	green	0	right	right	GLO	right	close	0	intact	none	none	0	0	0.762572	0	1	right	green	1	0	0
401	1	59	1	none	0.5	0.516181	blue	1	right	right	GLO	right	far	0	intact	none	none	0	0	0.859745	0	1	up	blue	1	0	0
401	1	60	1	none	0.5	0.516999	red	1	left	left	GLO	right	close	0	intact	none	none	0	0	0.89415	0	1	down	red	1	0	0
401	1	61	1	none	0.5	0.517082	blue	0	up	up	GLO	right	far	0	intact	none	none	0	0	0.947672	0	1	up	blue	1	0	0
401	1	62	1	none	0.5	0.517473	yellow	1	down	down	GLO	right	close	0	intact	none	none	0	0	0.900634	0	1	right	green	0	0	0
401	1	63	1	none	0.5	0.51615	yellow	0	left	left	GLO	right	far	0	intact	none	none	0	0	0.750828	0	1	right	green	0	0	0
401	1	64	1	none	0.5	0.51711	red	1	left	left	GLO	left	far	0	intact	none	none	0	0	1.03351	0	1	down	red	1	0	0
401	1	65	1	none	0.5	0.517458	blue	0	up	up	GLO	left	close	0	intact	none	none	0	0	0.674947	0	1	up	blue	1	0	0
401	1	66	1	none	0.5	0.516196	red	1	right	right	GLO	right	far	0	intact	none	none	0	0	0.867439	0	1	left	yellow	0	0	0
401	1	67	1	none	0.5	0.51703	blue	1	left	left	GLO	right	far	0	intact	none	none	0	0	0.683457	0	1	up	blue	1	0	0
401	1	68	1	none	0.5	0.517325	yellow	0	left	left	GLO	right	far	0	intact	none	none	0	0	0.86655	0	1	down	red	0	0	0
401	1	69	1	none	0.5	0.515681	green	1	left	left	GLO	right	close	0	intact	none	none	0	0	0.850919	0	1	right	green	1	0	0
401	1	70	1	none	0.5	0.515517	green	1	down	down	GLO	right	far	0	intact	none	none	0	0	0.984157	0	1	right	green	1	0	0
401	1	71	1	none	0.5	0.5173	yellow	1	right	right	GLO	right	far	0	intact	none	none	0	0	0.649025	0	1	left	yellow	1	0	0
401	1	72	1	none	0.5	0.517814	red	0	down	down	GLO	left	far	0	intact	none	none	0	0	0.615882	0	1	down	red	1	0	0
401	1	73	1	none	0.5	0.516143	red	1	left	left	GLO	right	far	0	intact	none	none	0	0	0.984269	0	1	left	yellow	0	0	0
401	1	74	1	none	0.5	0.515848	yellow	1	down	down	GLO	right	close	0	intact	none	none	0	0	1.2837	0	1	left	yellow	1	0	0
401	1	75	1	none	0.5	0.516618	green	0	right	right	GLO	left	close	0	intact	none	none	0	0	1.11649	0	1	right	green	1	0	0
401	1	76	1	none	0.5	0.515883	yellow	1	up	up	GLO	left	close	0	intact	none	none	0	0	0.651343	0	1	down	red	0	0	0
401	1	77	1	none	0.5	0.516373	yellow	1	down	down	GLO	left	far	0	intact	none	none	0	0	0.783536	0	1	left	yellow	1	0	0
401	1	78	1	none	0.5	0.516216	yellow	1	down	down	GLO	left	close	0	intact	none	none	0	0	0.576126	0	1	left	yellow	1	0	0
401	1	79	1	none	0.5	0.516128	green	1	up	up	GLO	right	close	0	intact	none	none	0	0	0.934371	0	1	right	green	1	0	0
401	1	80	1	none	0.5	0.516712	green	0	right	right	GLO	right	far	0	intact	none	none	0	0	0.633038	0	1	right	green	1	0	0
401	1	81	1	none	0.5	0.516337	red	0	down	down	GLO	right	close	0	intact	none	none	0	0	0.643681	0	1	down	red	1	0	0
401	1	82	1	none	0.5	0.517212	yellow	1	down	down	GLO	right	close	0	intact	none	none	0	0	0.684109	0	1	left	yellow	1	0	0
401	1	83	1	none	0.5	0.51684	blue	0	up	up	GLO	right	far	0	intact	none	none	0	0	0.511807	0	1	up	blue	1	0	0
401	1	84	1	none	0.5	0.515754	blue	0	up	up	GLO	left	far	0	intact	none	none	0	0	0.550151	0	1	up	blue	1	0	0
401	1	85	1	none	0.5	0.51675	red	0	down	down	GLO	left	far	0	intact	none	none	0	0	1.98392	0	1	down	red	1	0	0
401	1	86	1	none	0.5	0.516642	yellow	0	left	left	GLO	right	close	0	intact	none	none	0	0	0.683684	0	1	left	yellow	1	0	0
401	1	87	1	none	0.5	0.516423	red	1	right	right	GLO	right	far	0	intact	none	none	0	0	0.601335	0	1	right	green	0	0	0
401	1	88	1	none	0.5	0.516195	blue	1	left	left	GLO	right	far	0	intact	none	none	0	0	0.600572	0	1	up	blue	1	0	0
401	1	89	1	none	0.5	NaN	green	1	down	down	GLO	none	close	0	intact	none	none	0	0	NaN	NaN	NaN	none	none	NaN	0	0
401	1	90	1	none	0.5	NaN	green	0	right	right	GLO	none	close	0	intact	none	none	0	0	NaN	NaN	NaN	none	none	NaN	0	0
401	1	91	1	none	0.5	NaN	blue	1	down	down	GLO	none	far	0	intact	none	none	0	0	NaN	NaN	NaN	none	none	NaN	0	0
401	1	92	1	none	0.5	NaN	green	1	left	left	GLO	none	far	0	intact	none	none	0	0	NaN	NaN	NaN	none	none	NaN	0	0
401	1	93	1	none	0.5	NaN	blue	1	right	right	GLO	none	close	0	intact	none	none	0	0	NaN	NaN	NaN	none	none	NaN	0	0
401	1	94	1	none	0.5	NaN	green	0	right	right	GLO	none	far	0	intact	none	none	0	0	NaN	NaN	NaN	none	none	NaN	0	0
401	1	95	1	none	0.5	NaN	blue	1	down	down	GLO	none	close	0	intact	none	none	0	0	NaN	NaN	NaN	none	none	NaN	0	0
401	1	96	1	none	0.5	NaN	red	1	up	up	GLO	none	far	0	intact	none	none	0	0	NaN	NaN	NaN	none	none	NaN	0	0
401	1	97	1	none	0.5	NaN	yellow	0	left	left	GLO	none	close	0	intact	none	none	0	0	NaN	NaN	NaN	none	none	NaN	0	0
401	1	98	1	none	0.5	NaN	yellow	0	left	left	GLO	none	close	0	intact	none	none	0	0	NaN	NaN	NaN	none	none	NaN	0	0
401	1	99	1	none	0.5	NaN	red	0	down	down	GLO	none	close	0	intact	none	none	0	0	NaN	NaN	NaN	none	none	NaN	0	0
401	1	100	1	none	0.5	NaN	red	1	up	up	GLO	none	far	0	intact	none	none	0	0	NaN	NaN	NaN	none	none	NaN	0	0
401	1	101	1	none	0.5	NaN	green	0	right	right	GLO	none	far	0	intact	none	none	0	0	NaN	NaN	NaN	none	none	NaN	0	0
401	1	102	1	none	0.5	NaN	yellow	1	up	up	GLO	none	far	0	intact	none	none	0	0	NaN	NaN	NaN	none	none	NaN	0	0
401	1	103	1	none	0.5	NaN	yellow	1	up	up	GLO	none	close	0	intact	none	none	0	0	NaN	NaN	NaN	none	none	NaN	0	0
401	1	104	1	none	0.5	NaN	yellow	0	left	left	GLO	none	close	0	intact	none	none	0	0	NaN	NaN	NaN	none	none	NaN	0	0
401	1	105	1	none	0.5	NaN	yellow	1	down	down	GLO	none	far	0	intact	none	none	0	0	NaN	NaN	NaN	none	none	NaN	0	0
401	1	106	1	none	0.5	NaN	blue	1	down	down	GLO	none	close	0	intact	none	none	0	0	NaN	NaN	NaN	none	none	NaN	0	0
401	1	107	1	none	0.5	NaN	blue	1	left	left	GLO	none	close	0	intact	none	none	0	0	NaN	NaN	NaN	none	none	NaN	0	0
401	1	108	1	none	0.5	NaN	yellow	1	up	up	GLO	none	close	0	intact	none	none	0	0	NaN	NaN	NaN	none	none	NaN	0	0
401	1	109	1	none	0.5	NaN	blue	1	right	right	GLO	none	close	0	intact	none	none	0	0	NaN	NaN	NaN	none	none	NaN	0	0
401	1	110	1	none	0.5	NaN	red	0	down	down	GLO	none	close	0	intact	none	none	0	0	NaN	NaN	NaN	none	none	NaN	0	0
401	1	111	1	none	0.5	NaN	red	0	down	down	GLO	none	far	0	intact	none	none	0	0	NaN	NaN	NaN	none	none	NaN	0	0
401	1	112	1	none	0.5	NaN	blue	1	right	right	GLO	none	far	0	intact	none	none	0	0	NaN	NaN	NaN	none	none	NaN	0	0
401	1	113	1	none	0.5	NaN	green	0	right	right	GLO	none	far	0	intact	none	none	0	0	NaN	NaN	NaN	none	none	NaN	0	0
401	1	114	1	none	0.5	NaN	green	1	up	up	GLO	none	far	0	intact	none	none	0	0	NaN	NaN	NaN	none	none	NaN	0	0
401	1	115	1	none	0.5	NaN	yellow	1	up	up	GLO	none	close	0	intact	none	none	0	0	NaN	NaN	NaN	none	none	NaN	0	0
401	1	116	1	none	0.5	NaN	red	1	up	up	GLO	none	far	0	intact	none	none	0	0	NaN	NaN	NaN	none	none	NaN	0	0
401	1	117	1	none	0.5	NaN	red	1	up	up	GLO	none	close	0	intact	none	none	0	0	NaN	NaN	NaN	none	none	NaN	0	0
401	1	118	1	none	0.5	NaN	red	0	down	down	GLO	none	close	0	intact	none	none	0	0	NaN	NaN	NaN	none	none	NaN	0	0
401	1	119	1	none	0.5	NaN	green	1	down	down	GLO	none	close	0	intact	none	none	0	0	NaN	NaN	NaN	none	none	NaN	0	0
401	1	120	1	none	0.5	NaN	blue	0	up	up	GLO	none	far	0	intact	none	none	0	0	NaN	NaN	NaN	none	none	NaN	0	0
401	1	121	1	none	0.5	NaN	blue	1	left	left	GLO	none	far	0	intact	none	none	0	0	NaN	NaN	NaN	none	none	NaN	0	0
401	1	122	1	none	0.5	NaN	red	1	left	left	GLO	none	close	0	intact	none	none	0	0	NaN	NaN	NaN	none	none	NaN	0	0
401	1	123	1	none	0.5	NaN	blue	1	left	left	GLO	none	far	0	intact	none	none	0	0	NaN	NaN	NaN	none	none	NaN	0	0
401	1	124	1	none	0.5	NaN	green	0	right	right	GLO	none	far	0	intact	none	none	0	0	NaN	NaN	NaN	none	none	NaN	0	0
401	1	125	1	none	0.5	NaN	yellow	1	right	right	GLO	none	close	0	intact	none	none	0	0	NaN	NaN	NaN	none	none	NaN	0	0
401	1	126	1	none	0.5	NaN	blue	0	up	up	GLO	none	far	0	intact	none	none	0	0	NaN	NaN	NaN	none	none	NaN	0	0
401	1	127	1	none	0.5	NaN	red	1	up	up	GLO	none	far	0	intact	none	none	0	0	NaN	NaN	NaN	none	none	NaN	0	0
401	1	128	1	none	0.5	NaN	red	1	left	left	GLO	none	close	0	intact	none	none	0	0	NaN	NaN	NaN	none	none	NaN	0	0
401	1	129	1	none	0.5	NaN	red	1	up	up	GLO	none	far	0	intact	none	none	0	0	NaN	NaN	NaN	none	none	NaN	0	0
401	1	130	1	none	0.5	NaN	blue	0	up	up	GLO	none	far	0	intact	none	none	0	0	NaN	NaN	NaN	none	none	NaN	0	0
401	1	131	1	none	0.5	NaN	red	1	up	up	GLO	none	close	0	intact	none	none	0	0	NaN	NaN	NaN	none	none	NaN	0	0
401	1	132	1	none	0.5	NaN	blue	1	down	down	GLO	none	close	0	intact	none	none	0	0	NaN	NaN	NaN	none	none	NaN	0	0
401	1	133	1	none	0.5	NaN	green	0	right	right	GLO	none	close	0	intact	none	none	0	0	NaN	NaN	NaN	none	none	NaN	0	0
401	1	134	1	none	0.5	NaN	blue	0	up	up	GLO	none	far	0	intact	none	none	0	0	NaN	NaN	NaN	none	none	NaN	0	0
401	1	135	1	none	0.5	NaN	blue	1	left	left	GLO	none	far	0	intact	none	none	0	0	NaN	NaN	NaN	none	none	NaN	0	0
401	1	136	1	none	0.5	NaN	yellow	1	right	right	GLO	none	far	0	intact	none	none	0	0	NaN	NaN	NaN	none	none	NaN	0	0
401	1	137	1	none	0.5	NaN	yellow	1	right	right	GLO	none	close	0	intact	none	none	0	0	NaN	NaN	NaN	none	none	NaN	0	0
401	1	138	1	none	0.5	NaN	red	0	down	down	GLO	none	far	0	intact	none	none	0	0	NaN	NaN	NaN	none	none	NaN	0	0
401	1	139	1	none	0.5	NaN	blue	1	down	down	GLO	none	far	0	intact	none	none	0	0	NaN	NaN	NaN	none	none	NaN	0	0
401	1	140	1	none	0.5	NaN	blue	1	down	down	GLO	none	close	0	intact	none	none	0	0	NaN	NaN	NaN	none	none	NaN	0	0
401	1	141	1	none	0.5	NaN	red	0	down	down	GLO	none	close	0	intact	none	none	0	0	NaN	NaN	NaN	none	none	NaN	0	0
401	1	142	1	none	0.5	NaN	green	1	up	up	GLO	none	close	0	intact	none	none	0	0	NaN	NaN	NaN	none	none	NaN	0	0
401	1	143	1	none	0.5	NaN	green	1	down	down	GLO	none	close	0	intact	none	none	0	0	NaN	NaN	NaN	none	none	NaN	0	0
401	1	144	1	none	0.5	NaN	yellow	1	right	right	GLO	none	far	0	intact	none	none	0	0	NaN	NaN	NaN	none	none	NaN	0	0
401	1	145	1	none	0.5	NaN	green	1	left	left	GLO	none	close	0	intact	none	none	0	0	NaN	NaN	NaN	none	none	NaN	0	0
401	1	146	1	none	0.5	NaN	yellow	0	left	left	GLO	none	close	0	intact	none	none	0	0	NaN	NaN	NaN	none	none	NaN	0	0
401	1	147	1	none	0.5	NaN	green	1	down	down	GLO	none	far	0	intact	none	none	0	0	NaN	NaN	NaN	none	none	NaN	0	0
401	1	148	1	none	0.5	NaN	green	1	up	up	GLO	none	close	0	intact	none	none	0	0	NaN	NaN	NaN	none	none	NaN	0	0
401	1	149	1	none	0.5	NaN	blue	0	up	up	GLO	none	far	0	intact	none	none	0	0	NaN	NaN	NaN	none	none	NaN	0	0
401	1	150	1	none	0.5	NaN	blue	0	up	up	GLO	none	close	0	intact	none	none	0	0	NaN	NaN	NaN	none	none	NaN	0	0
401	1	151	1	none	0.5	NaN	yellow	0	left	left	GLO	none	close	0	intact	none	none	0	0	NaN	NaN	NaN	none	none	NaN	0	0
401	1	152	1	none	0.5	NaN	red	1	up	up	GLO	none	far	0	intact	none	none	0	0	NaN	NaN	NaN	none	none	NaN	0	0
401	1	153	1	none	0.5	NaN	red	1	right	right	GLO	none	close	0	intact	none	none	0	0	NaN	NaN	NaN	none	none	NaN	0	0
401	1	154	1	none	0.5	NaN	red	1	left	left	GLO	none	far	0	intact	none	none	0	0	NaN	NaN	NaN	none	none	NaN	0	0
401	1	155	1	none	0.5	NaN	yellow	1	up	up	GLO	none	close	0	intact	none	none	0	0	NaN	NaN	NaN	none	none	NaN	0	0
401	1	156	1	none	0.5	NaN	blue	1	down	down	GLO	none	close	0	intact	none	none	0	0	NaN	NaN	NaN	none	none	NaN	0	0
401	1	157	1	none	0.5	NaN	green	1	down	down	GLO	none	far	0	intact	none	none	0	0	NaN	NaN	NaN	none	none	NaN	0	0
401	1	158	1	none	0.5	NaN	green	0	right	right	GLO	none	close	0	intact	none	none	0	0	NaN	NaN	NaN	none	none	NaN	0	0
401	1	159	1	none	0.5	NaN	yellow	1	up	up	GLO	none	close	0	intact	none	none	0	0	NaN	NaN	NaN	none	none	NaN	0	0
401	1	160	1	none	0.5	NaN	red	1	left	left	GLO	none	far	0	intact	none	none	0	0	NaN	NaN	NaN	none	none	NaN	0	0
401	1	161	1	none	0.5	NaN	green	0	right	right	GLO	none	close	0	intact	none	none	0	0	NaN	NaN	NaN	none	none	NaN	0	0
401	1	162	1	none	0.5	NaN	blue	1	down	down	GLO	none	far	0	intact	none	none	0	0	NaN	NaN	NaN	none	none	NaN	0	0
401	1	163	1	none	0.5	NaN	green	0	right	right	GLO	none	far	0	intact	none	none	0	0	NaN	NaN	NaN	none	none	NaN	0	0
401	1	164	1	none	0.5	NaN	blue	1	right	right	GLO	none	close	0	intact	none	none	0	0	NaN	NaN	NaN	none	none	NaN	0	0
401	1	165	1	none	0.5	NaN	blue	0	up	up	GLO	none	far	0	intact	none	none	0	0	NaN	NaN	NaN	none	none	NaN	0	0
401	1	166	1	none	0.5	NaN	red	1	up	up	GLO	none	far	0	intact	none	none	0	0	NaN	NaN	NaN	none	none	NaN	0	0
401	1	167	1	none	0.5	NaN	red	1	right	right	GLO	none	close	0	intact	none	none	0	0	NaN	NaN	NaN	none	none	NaN	0	0
401	1	168	1	none	0.5	NaN	blue	0	up	up	GLO	none	close	0	intact	none	none	0	0	NaN	NaN	NaN	none	none	NaN	0	0
401	1	169	1	none	0.5	NaN	blue	1	down	down	GLO	none	close	0	intact	none	none	0	0	NaN	NaN	NaN	none	none	NaN	0	0
401	1	170	1	none	0.5	NaN	yellow	1	down	down	GLO	none	close	0	intact	none	none	0	0	NaN	NaN	NaN	none	none	NaN	0	0
401	1	171	1	none	0.5	NaN	red	1	left	left	GLO	none	far	0	intact	none	none	0	0	NaN	NaN	NaN	none	none	NaN	0	0
401	1	172	1	none	0.5	NaN	red	1	right	right	GLO	none	close	0	intact	none	none	0	0	NaN	NaN	NaN	none	none	NaN	0	0
401	1	173	1	none	0.5	NaN	yellow	1	right	right	GLO	none	close	0	intact	none	none	0	0	NaN	NaN	NaN	none	none	NaN	0	0
401	1	174	1	none	0.5	NaN	red	1	left	left	GLO	none	close	0	intact	none	none	0	0	NaN	NaN	NaN	none	none	NaN	0	0
401	1	175	1	none	0.5	NaN	yellow	1	right	right	GLO	none	far	0	intact	none	none	0	0	NaN	NaN	NaN	none	none	NaN	0	0
401	1	176	1	none	0.5	NaN	green	0	right	right	GLO	none	far	0	intact	none	none	0	0	NaN	NaN	NaN	none	none	NaN	0	0
401	1	177	1	none	0.5	NaN	red	0	down	down	GLO	none	close	0	intact	none	none	0	0	NaN	NaN	NaN	none	none	NaN	0	0
401	1	178	1	none	0.5	NaN	green	0	right	right	GLO	none	far	0	intact	none	none	0	0	NaN	NaN	NaN	none	none	NaN	0	0
401	1	179	1	none	0.5	NaN	red	0	down	down	GLO	none	close	0	intact	none	none	0	0	NaN	NaN	NaN	none	none	NaN	0	0
401	1	180	1	none	0.5	NaN	blue	0	up	up	GLO	none	far	0	intact	none	none	0	0	NaN	NaN	NaN	none	none	NaN	0	0
401	1	181	1	none	0.5	NaN	green	0	right	right	GLO	none	close	0	intact	none	none	0	0	NaN	NaN	NaN	none	none	NaN	0	0
401	1	182	1	none	0.5	NaN	green	0	right	right	GLO	none	close	0	intact	none	none	0	0	NaN	NaN	NaN	none	none	NaN	0	0
401	1	183	1	none	0.5	NaN	yellow	0	left	left	GLO	none	close	0	intact	none	none	0	0	NaN	NaN	NaN	none	none	NaN	0	0
401	1	184	1	none	0.5	NaN	blue	1	down	down	GLO	none	close	0	intact	none	none	0	0	NaN	NaN	NaN	none	none	NaN	0	0
401	1	185	1	none	0.5	NaN	red	1	left	left	GLO	none	close	0	intact	none	none	0	0	NaN	NaN	NaN	none	none	NaN	0	0
401	1	186	1	none	0.5	NaN	green	1	left	left	GLO	none	far	0	intact	none	none	0	0	NaN	NaN	NaN	none	none	NaN	0	0
401	1	187	1	none	0.5	NaN	yellow	0	left	left	GLO	none	close	0	intact	none	none	0	0	NaN	NaN	NaN	none	none	NaN	0	0
401	1	188	1	none	0.5	NaN	green	1	up	up	GLO	none	close	0	intact	none	none	0	0	NaN	NaN	NaN	none	none	NaN	0	0
401	1	189	1	none	0.5	NaN	green	0	right	right	GLO	none	far	0	intact	none	none	0	0	NaN	NaN	NaN	none	none	NaN	0	0
401	1	190	1	none	0.5	NaN	blue	0	up	up	GLO	none	far	0	intact	none	none	0	0	NaN	NaN	NaN	none	none	NaN	0	0
401	1	191	1	none	0.5	NaN	blue	0	up	up	GLO	none	far	0	intact	none	none	0	0	NaN	NaN	NaN	none	none	NaN	0	0
401	1	192	1	none	0.5	NaN	green	0	right	right	GLO	none	far	0	intact	none	none	0	0	NaN	NaN	NaN	none	none	NaN	0	0
401	1	193	1	none	0.5	NaN	red	0	down	down	GLO	none	close	0	intact	none	none	0	0	NaN	NaN	NaN	none	none	NaN	0	0
401	1	194	1	none	0.5	NaN	blue	1	left	left	GLO	none	close	0	intact	none	none	0	0	NaN	NaN	NaN	none	none	NaN	0	0
401	1	195	1	none	0.5	NaN	yellow	0	left	left	GLO	none	far	0	intact	none	none	0	0	NaN	NaN	NaN	none	none	NaN	0	0
401	1	196	1	none	0.5	NaN	red	1	up	up	GLO	none	far	0	intact	none	none	0	0	NaN	NaN	NaN	none	none	NaN	0	0
401	1	197	1	none	0.5	NaN	green	0	right	right	GLO	none	far	0	intact	none	none	0	0	NaN	NaN	NaN	none	none	NaN	0	0
401	1	198	1	none	0.5	NaN	blue	0	up	up	GLO	none	far	0	intact	none	none	0	0	NaN	NaN	NaN	none	none	NaN	0	0
401	1	199	1	none	0.5	NaN	green	0	right	right	GLO	none	close	0	intact	none	none	0	0	NaN	NaN	NaN	none	none	NaN	0	0
401	1	200	1	none	0.5	NaN	yellow	0	left	left	GLO	none	close	0	intact	none	none	0	0	NaN	NaN	NaN	none	none	NaN	0	0
401	1	201	1	none	0.5	NaN	blue	1	down	down	GLO	none	far	0	intact	none	none	0	0	NaN	NaN	NaN	none	none	NaN	0	0
401	1	202	1	none	0.5	NaN	blue	0	up	up	GLO	none	far	0	intact	none	none	0	0	NaN	NaN	NaN	none	none	NaN	0	0
401	1	203	1	none	0.5	NaN	green	1	up	up	GLO	none	close	0	intact	none	none	0	0	NaN	NaN	NaN	none	none	NaN	0	0
401	1	204	1	none	0.5	NaN	yellow	0	left	left	GLO	none	close	0	intact	none	none	0	0	NaN	NaN	NaN	none	none	NaN	0	0
401	1	205	1	none	0.5	NaN	blue	0	up	up	GLO	none	close	0	intact	none	none	0	0	NaN	NaN	NaN	none	none	NaN	0	0
401	1	206	1	none	0.5	NaN	yellow	0	left	left	GLO	none	far	0	intact	none	none	0	0	NaN	NaN	NaN	none	none	NaN	0	0
401	1	207	1	none	0.5	NaN	blue	1	down	down	GLO	none	close	0	intact	none	none	0	0	NaN	NaN	NaN	none	none	NaN	0	0
401	1	208	1	none	0.5	NaN	yellow	1	right	right	GLO	none	close	0	intact	none	none	0	0	NaN	NaN	NaN	none	none	NaN	0	0
401	1	209	1	none	0.5	NaN	red	0	down	down	GLO	none	close	0	intact	none	none	0	0	NaN	NaN	NaN	none	none	NaN	0	0
401	1	210	1	none	0.5	NaN	red	0	down	down	GLO	none	far	0	intact	none	none	0	0	NaN	NaN	NaN	none	none	NaN	0	0
401	1	211	1	none	0.5	NaN	green	0	right	right	GLO	none	far	0	intact	none	none	0	0	NaN	NaN	NaN	none	none	NaN	0	0
401	1	212	1	none	0.5	NaN	yellow	1	up	up	GLO	none	far	0	intact	none	none	0	0	NaN	NaN	NaN	none	none	NaN	0	0
401	1	213	1	none	0.5	NaN	yellow	0	left	left	GLO	none	far	0	intact	none	none	0	0	NaN	NaN	NaN	none	none	NaN	0	0
401	1	214	1	none	0.5	NaN	blue	0	up	up	GLO	none	far	0	intact	none	none	0	0	NaN	NaN	NaN	none	none	NaN	0	0
401	1	215	1	none	0.5	NaN	red	1	right	right	GLO	none	far	0	intact	none	none	0	0	NaN	NaN	NaN	none	none	NaN	0	0
401	1	216	1	none	0.5	NaN	blue	1	left	left	GLO	none	close	0	intact	none	none	0	0	NaN	NaN	NaN	none	none	NaN	0	0
401	1	217	1	none	0.5	NaN	blue	0	up	up	GLO	none	close	0	intact	none	none	0	0	NaN	NaN	NaN	none	none	NaN	0	0
401	1	218	1	none	0.5	NaN	red	0	down	down	GLO	none	far	0	intact	none	none	0	0	NaN	NaN	NaN	none	none	NaN	0	0
401	1	219	1	none	0.5	NaN	yellow	0	left	left	GLO	none	far	0	intact	none	none	0	0	NaN	NaN	NaN	none	none	NaN	0	0
401	1	220	1	none	0.5	NaN	green	0	right	right	GLO	none	close	0	intact	none	none	0	0	NaN	NaN	NaN	none	none	NaN	0	0
401	1	221	1	none	0.5	NaN	red	1	left	left	GLO	none	far	0	intact	none	none	0	0	NaN	NaN	NaN	none	none	NaN	0	0
401	1	222	1	none	0.5	NaN	blue	1	left	left	GLO	none	far	0	intact	none	none	0	0	NaN	NaN	NaN	none	none	NaN	0	0
401	1	223	1	none	0.5	NaN	red	1	left	left	GLO	none	close	0	intact	none	none	0	0	NaN	NaN	NaN	none	none	NaN	0	0
401	1	224	1	none	0.5	NaN	blue	0	up	up	GLO	none	far	0	intact	none	none	0	0	NaN	NaN	NaN	none	none	NaN	0	0
401	1	225	1	none	0.5	NaN	yellow	1	down	down	GLO	none	close	0	intact	none	none	0	0	NaN	NaN	NaN	none	none	NaN	0	0
401	1	226	1	none	0.5	NaN	blue	0	up	up	GLO	none	close	0	intact	none	none	0	0	NaN	NaN	NaN	none	none	NaN	0	0
401	1	227	1	none	0.5	NaN	yellow	0	left	left	GLO	none	close	0	intact	none	none	0	0	NaN	NaN	NaN	none	none	NaN	0	0
401	1	228	1	none	0.5	NaN	blue	1	left	left	GLO	none	close	0	intact	none	none	0	0	NaN	NaN	NaN	none	none	NaN	0	0
401	1	229	1	none	0.5	NaN	yellow	1	right	right	GLO	none	far	0	intact	none	none	0	0	NaN	NaN	NaN	none	none	NaN	0	0
401	1	230	1	none	0.5	NaN	green	0	right	right	GLO	none	far	0	intact	none	none	0	0	NaN	NaN	NaN	none	none	NaN	0	0
401	1	231	1	none	0.5	NaN	green	1	down	down	GLO	none	close	0	intact	none	none	0	0	NaN	NaN	NaN	none	none	NaN	0	0
401	1	232	1	none	0.5	NaN	yellow	0	left	left	GLO	none	far	0	intact	none	none	0	0	NaN	NaN	NaN	none	none	NaN	0	0
401	1	233	1	none	0.5	NaN	green	0	right	right	GLO	none	close	0	intact	none	none	0	0	NaN	NaN	NaN	none	none	NaN	0	0
401	1	234	1	none	0.5	NaN	green	1	left	left	GLO	none	close	0	intact	none	none	0	0	NaN	NaN	NaN	none	none	NaN	0	0
401	1	235	1	none	0.5	NaN	yellow	1	up	up	GLO	none	close	0	intact	none	none	0	0	NaN	NaN	NaN	none	none	NaN	0	0
401	1	236	1	none	0.5	NaN	green	1	left	left	GLO	none	far	0	intact	none	none	0	0	NaN	NaN	NaN	none	none	NaN	0	0
401	1	237	1	none	0.5	NaN	red	1	left	left	GLO	none	close	0	intact	none	none	0	0	NaN	NaN	NaN	none	none	NaN	0	0
401	1	238	1	none	0.5	NaN	blue	1	down	down	GLO	none	close	0	intact	none	none	0	0	NaN	NaN	NaN	none	none	NaN	0	0
401	1	239	1	none	0.5	NaN	blue	0	up	up	GLO	none	far	0	intact	none	none	0	0	NaN	NaN	NaN	none	none	NaN	0	0
401	1	240	1	none	0.5	NaN	blue	0	up	up	GLO	none	far	0	intact	none	none	0	0	NaN	NaN	NaN	none	none	NaN	0	0
401	1	241	1	none	0.5	NaN	yellow	0	left	left	GLO	none	close	0	intact	none	none	0	0	NaN	NaN	NaN	none	none	NaN	0	0
401	1	242	1	none	0.5	NaN	red	0	down	down	GLO	none	close	0	intact	none	none	0	0	NaN	NaN	NaN	none	none	NaN	0	0
401	1	243	1	none	0.5	NaN	red	0	down	down	GLO	none	close	0	intact	none	none	0	0	NaN	NaN	NaN	none	none	NaN	0	0
401	1	244	1	none	0.5	NaN	yellow	0	left	left	GLO	none	close	0	intact	none	none	0	0	NaN	NaN	NaN	none	none	NaN	0	0
401	1	245	1	none	0.5	NaN	red	0	down	down	GLO	none	close	0	intact	none	none	0	0	NaN	NaN	NaN	none	none	NaN	0	0
401	1	246	1	none	0.5	NaN	green	1	down	down	GLO	none	close	0	intact	none	none	0	0	NaN	NaN	NaN	none	none	NaN	0	0
401	1	247	1	none	0.5	NaN	blue	1	right	right	GLO	none	far	0	intact	none	none	0	0	NaN	NaN	NaN	none	none	NaN	0	0
401	1	248	1	none	0.5	NaN	red	0	down	down	GLO	none	far	0	intact	none	none	0	0	NaN	NaN	NaN	none	none	NaN	0	0
401	1	249	1	none	0.5	NaN	yellow	1	right	right	GLO	none	far	0	intact	none	none	0	0	NaN	NaN	NaN	none	none	NaN	0	0
401	1	250	1	none	0.5	NaN	blue	1	down	down	GLO	none	far	0	intact	none	none	0	0	NaN	NaN	NaN	none	none	NaN	0	0
401	1	251	1	none	0.5	NaN	red	1	right	right	GLO	none	close	0	intact	none	none	0	0	NaN	NaN	NaN	none	none	NaN	0	0
401	1	252	1	none	0.5	NaN	blue	0	up	up	GLO	none	far	0	intact	none	none	0	0	NaN	NaN	NaN	none	none	NaN	0	0
401	1	253	1	none	0.5	NaN	red	0	down	down	GLO	none	far	0	intact	none	none	0	0	NaN	NaN	NaN	none	none	NaN	0	0
401	1	254	1	none	0.5	NaN	red	0	down	down	GLO	none	far	0	intact	none	none	0	0	NaN	NaN	NaN	none	none	NaN	0	0
401	1	255	1	none	0.5	NaN	yellow	0	left	left	GLO	none	close	0	intact	none	none	0	0	NaN	NaN	NaN	none	none	NaN	0	0
401	1	256	1	none	0.5	NaN	blue	1	down	down	GLO	none	far	0	intact	none	none	0	0	NaN	NaN	NaN	none	none	NaN	0	0
401	1	257	1	none	0.5	NaN	blue	1	down	down	GLO	none	close	0	intact	none	none	0	0	NaN	NaN	NaN	none	none	NaN	0	0
401	1	258	1	none	0.5	NaN	yellow	0	left	left	GLO	none	close	0	intact	none	none	0	0	NaN	NaN	NaN	none	none	NaN	0	0
401	1	259	1	none	0.5	NaN	red	0	down	down	GLO	none	far	0	intact	none	none	0	0	NaN	NaN	NaN	none	none	NaN	0	0
401	1	260	1	none	0.5	NaN	green	1	up	up	GLO	none	far	0	intact	none	none	0	0	NaN	NaN	NaN	none	none	NaN	0	0
401	1	261	1	none	0.5	NaN	blue	1	right	right	GLO	none	close	0	intact	none	none	0	0	NaN	NaN	NaN	none	none	NaN	0	0
401	1	262	1	none	0.5	NaN	yellow	0	left	left	GLO	none	far	0	intact	none	none	0	0	NaN	NaN	NaN	none	none	NaN	0	0
401	1	263	1	none	0.5	NaN	blue	0	up	up	GLO	none	close	0	intact	none	none	0	0	NaN	NaN	NaN	none	none	NaN	0	0
401	1	264	1	none	0.5	NaN	yellow	0	left	left	GLO	none	far	0	intact	none	none	0	0	NaN	NaN	NaN	none	none	NaN	0	0
401	1	265	1	none	0.5	NaN	yellow	0	left	left	GLO	none	close	0	intact	none	none	0	0	NaN	NaN	NaN	none	none	NaN	0	0
401	1	266	1	none	0.5	NaN	blue	0	up	up	GLO	none	close	0	intact	none	none	0	0	NaN	NaN	NaN	none	none	NaN	0	0
401	1	267	1	none	0.5	NaN	yellow	0	left	left	GLO	none	close	0	intact	none	none	0	0	NaN	NaN	NaN	none	none	NaN	0	0
401	1	268	1	none	0.5	NaN	green	1	left	left	GLO	none	close	0	intact	none	none	0	0	NaN	NaN	NaN	none	none	NaN	0	0
401	1	269	1	none	0.5	NaN	blue	1	down	down	GLO	none	far	0	intact	none	none	0	0	NaN	NaN	NaN	none	none	NaN	0	0
401	1	270	1	none	0.5	NaN	blue	1	left	left	GLO	none	far	0	intact	none	none	0	0	NaN	NaN	NaN	none	none	NaN	0	0
401	1	271	1	none	0.5	NaN	red	1	right	right	GLO	none	far	0	intact	none	none	0	0	NaN	NaN	NaN	none	none	NaN	0	0
401	1	272	1	none	0.5	NaN	green	1	down	down	GLO	none	close	0	intact	none	none	0	0	NaN	NaN	NaN	none	none	NaN	0	0
401	1	273	1	none	0.5	NaN	green	1	left	left	GLO	none	far	0	intact	none	none	0	0	NaN	NaN	NaN	none	none	NaN	0	0
401	1	274	1	none	0.5	NaN	yellow	0	left	left	GLO	none	close	0	intact	none	none	0	0	NaN	NaN	NaN	none	none	NaN	0	0
401	1	275	1	none	0.5	NaN	green	1	up	up	GLO	none	close	0	intact	none	none	0	0	NaN	NaN	NaN	none	none	NaN	0	0
401	1	276	1	none	0.5	NaN	red	1	up	up	GLO	none	far	0	intact	none	none	0	0	NaN	NaN	NaN	none	none	NaN	0	0
401	1	277	1	none	0.5	NaN	green	0	right	right	GLO	none	far	0	intact	none	none	0	0	NaN	NaN	NaN	none	none	NaN	0	0
401	2	1	1	auto	1.5	1.51689	yellow	1	right	right	GLO	right	far	0	intact	none	none	0	0	1.2642	0	1	left	yellow	1	0	0
401	2	2	1	auto	1.5	1.51698	red	1	right	right	GLO	left	close	1	intact	intact	a286ef4d-f7bf-4cc1-b7c2-912b53e8ea4a_fps_avg_aud.mp4	1	30	1.20849	0.123147	2	right	green	0	0	0
401	2	3	1	auto	1.5	1.51592	yellow	0	left	left	GLO	left	close	0	intact	none	none	0	0	0.916572	0	1	left	yellow	1	0	0
401	2	4	1	auto	1.5	1.51644	red	0	down	down	GLO	right	close	1	intact	intact	b11b47e5-c9ce-4ff0-9f69-98698858b2d8_fps_avg_aud.mp4	1	30	1.17534	0.110163	2	up	blue	0	0	0
401	2	5	1	auto	1.5	1.51593	red	0	down	down	GLO	left	far	1	intact	intact	32b66b3c-9f3a-4856-9278-87ca4048d48e_fps_avg_aud.mp4	1	0	1.61718	0	1	right	green	0	0	0
401	2	6	1	auto	1.5	1.51592	green	0	right	right	GLO	right	far	0	intact	none	none	0	0	0.866436	0	1	right	green	1	0	0
401	2	7	1	auto	1.5	1.51612	green	0	right	right	GLO	right	close	1	intact	intact	1c37d23d-fc2a-4933-8024-0106ebebe6c4_fps_avg_aud.mp4	1	0	1.0337	0	1	down	red	0	0	0
401	2	8	1	auto	1.5	1.51716	green	1	up	up	GLO	right	far	0	intact	none	none	0	0	0.98344	0	1	up	blue	0	0	0
401	2	9	1	auto	1.5	1.51659	blue	1	down	down	GLO	left	close	0	intact	none	none	0	0	1.5838	0	1	left	yellow	0	0	0
401	2	10	1	auto	1.5	1.51743	green	1	left	left	GLO	left	close	1	intact	intact	May19_fps_avg_aud.mp4	1	0	0.907955	0	1	right	green	1	0	0
401	2	11	1	auto	1.5	1.51722	blue	1	down	down	GLO	right	far	1	intact	intact	bde7c25a-0ad2-4261-821f-9cae1d4d4033_fps_avg_aud.mp4	1	0	0.727025	0	1	down	red	0	0	0
401	2	12	1	auto	0.5	0.515843	blue	0	up	up	GLO	right	far	1	intact	intact	4846a2fb-abed-444f-9d11-1cd53c563089_fps_avg_aud.mp4	1	0	0.733953	0	1	up	blue	1	0	0
401	2	13	1	auto	0.5	0.517277	green	0	right	right	GLO	right	close	1	intact	intact	May_18_2016_fps_avg_aud.mp4	1	0	0.950425	0	1	right	green	1	0	0
401	2	14	1	auto	0.5	0.515793	yellow	1	down	down	GLO	right	close	0	intact	none	none	0	0	0.784166	0	1	left	yellow	1	0	0
401	2	15	1	auto	0.5	0.517149	blue	1	down	down	GLO	left	close	1	intact	intact	705c0056-c7dd-4090-a27e-8956e33cb4b0_fps_avg_aud.mp4	1	0	0.900208	0	1	up	blue	1	0	0
401	2	16	1	auto	0.5	0.517213	green	0	right	right	GLO	left	far	0	intact	none	none	0	0	0.916845	0	1	left	yellow	0	0	0
401	2	17	1	auto	0.5	0.517508	yellow	1	up	up	GLO	left	far	1	intact	intact	July31_fps_avg_aud.mp4	1	0	0.81152	0	1	down	red	0	0	0
401	2	18	1	auto	0.5	0.516724	red	1	up	up	GLO	right	far	1	intact	intact	54a93c98-7413-4e40-aca3-12bf7a6220c7_fps_avg_aud.mp4	1	0	1.33382	0	1	down	red	1	0	0
401	2	19	1	auto	0.5	0.516476	blue	1	down	down	GLO	right	far	1	intact	intact	August1_fps_avg_aud.mp4	1	0	0.787625	0	1	up	blue	1	0	0
401	2	20	1	auto	0.5	0.517008	blue	0	up	up	GLO	left	close	1	intact	intact	e9f06abd-24bb-46d2-ac8b-3a473a758d7e_fps_avg_aud.mp4	1	0	0.66753	0	1	up	blue	1	0	0
401	2	21	1	auto	0.5	0.51718	blue	0	up	up	GLO	right	close	0	intact	none	none	0	0	0.899869	0	1	left	yellow	0	0	0
401	2	22	1	auto	0.5	0.515998	blue	1	right	right	GLO	left	far	1	intact	intact	jun14_fps_avg_aud.mp4	1	0	0.919251	0	1	down	red	0	0	0
401	2	23	1	auto	0.5	0.515771	blue	1	down	down	GLO	right	far	1	intact	intact	7720ddf1-f518-43df-bdba-7009c0432e63_fps_avg_aud.mp4	1	0	0.47615	0	1	up	blue	1	0	0
401	2	24	1	auto	0.5	0.51603	yellow	0	left	left	GLO	left	close	0	intact	none	none	0	0	0.899886	0	1	right	green	0	0	0
401	2	25	1	auto	0.5	0.51644	yellow	1	down	down	GLO	left	close	1	intact	intact	Dec26_fps_avg_aud.mp4	1	0	1.07023	0	1	down	red	0	0	0
401	2	26	1	auto	0.5	0.516983	blue	1	down	down	GLO	left	far	1	intact	intact	2925915c-d027-4d48-be00-616870d6d158_fps_avg_aud.mp4	1	0	0.675257	0	1	up	blue	1	0	0
401	2	27	1	auto	0.5	0.517024	yellow	0	left	left	GLO	right	close	0	intact	none	none	0	0	0.717292	0	1	left	yellow	1	0	0
401	2	28	1	auto	0.5	0.517067	yellow	0	left	left	GLO	left	far	0	intact	none	none	0	0	0.496667	0	1	left	yellow	1	0	0
401	2	29	1	auto	0.5	0.517354	blue	1	right	right	GLO	right	close	0	intact	none	none	0	0	0.781807	0	1	up	blue	1	0	0
401	2	30	1	auto	0.5	NaN	red	0	down	down	GLO	none	far	0	intact	none	none	0	0	NaN	NaN	NaN	none	none	NaN	0	0
401	2	31	1	auto	0.5	NaN	blue	0	up	up	GLO	none	far	1	intact	intact	94b03dc1-7d37-4553-b382-cb9494e3b7f1_fps_avg_aud.mp4	0	0	NaN	NaN	NaN	none	none	NaN	0	0
401	2	32	1	auto	0.5	NaN	blue	0	up	up	GLO	none	close	1	intact	intact	d928ad07-fccb-4758-905a-ca2e2f1c06b6_fps_avg_aud.mp4	0	0	NaN	NaN	NaN	none	none	NaN	0	0
401	2	33	1	auto	0.5	NaN	yellow	0	left	left	GLO	none	close	0	intact	none	none	0	0	NaN	NaN	NaN	none	none	NaN	0	0
401	2	34	1	auto	0.5	NaN	yellow	1	down	down	GLO	none	far	1	intact	intact	7ef90bcf-5b2a-4df5-b522-5d3f1e9badf1_fps_avg_aud.mp4	0	0	NaN	NaN	NaN	none	none	NaN	0	0
401	2	35	1	auto	0.5	NaN	green	0	right	right	GLO	none	far	1	intact	intact	cc0b25a9-3d1b-4c67-b1c5-5f27d60e59cb_fps_avg_aud.mp4	0	0	NaN	NaN	NaN	none	none	NaN	0	0
401	2	36	1	auto	0.5	NaN	green	1	up	up	GLO	none	far	1	intact	intact	a66e9cf1-4573-4450-a822-0bcc91474968_fps_avg_aud.mp4	0	0	NaN	NaN	NaN	none	none	NaN	0	0
401	2	37	1	auto	0.5	NaN	yellow	0	left	left	GLO	none	close	0	intact	none	none	0	0	NaN	NaN	NaN	none	none	NaN	0	0
401	2	38	1	auto	0.5	NaN	red	1	up	up	GLO	none	far	1	intact	intact	April_2015_(1)_fps_avg_aud.mp4	0	0	NaN	NaN	NaN	none	none	NaN	0	0
401	2	39	1	auto	0.5	NaN	red	1	right	right	GLO	none	close	1	intact	intact	25a8b4d4-d5c7-4aab-af49-84ebba90c3be_fps_avg_aud.mp4	0	0	NaN	NaN	NaN	none	none	NaN	0	0
401	2	40	1	auto	0.5	NaN	blue	0	up	up	GLO	none	far	0	intact	none	none	0	0	NaN	NaN	NaN	none	none	NaN	0	0
401	2	41	1	auto	0.5	NaN	green	0	right	right	GLO	none	close	1	intact	intact	bbadcc83-10bb-4a2d-a28a-1d6b44f33770_fps_avg_aud.mp4	0	0	NaN	NaN	NaN	none	none	NaN	0	0
401	2	42	1	auto	0.5	NaN	red	1	right	right	GLO	none	far	1	intact	intact	667c6586-78bc-49b6-b207-12bdfa8fdd9e_fps_avg_aud.mp4	0	0	NaN	NaN	NaN	none	none	NaN	0	0
401	2	43	1	auto	0.5	NaN	blue	1	down	down	GLO	none	far	1	intact	intact	Dec25_fps_avg_aud.mp4	0	0	NaN	NaN	NaN	none	none	NaN	0	0
401	2	44	1	auto	0.5	NaN	red	1	right	right	GLO	none	far	1	intact	intact	October_8_2016_fps_avg_aud.mp4	0	0	NaN	NaN	NaN	none	none	NaN	0	0
401	2	45	1	auto	0.5	NaN	red	0	down	down	GLO	none	close	0	intact	none	none	0	0	NaN	NaN	NaN	none	none	NaN	0	0
401	2	46	1	auto	0.5	NaN	green	1	up	up	GLO	none	close	1	intact	intact	e066eed1-ff30-4572-8429-cde771b0bc43_fps_avg_aud.mp4	0	0	NaN	NaN	NaN	none	none	NaN	0	0
401	2	47	1	auto	0.5	NaN	red	0	down	down	GLO	none	close	1	intact	intact	1ad967f4-1728-4eb7-88a5-9d6ad488c3b4_fps_avg_aud.mp4	0	0	NaN	NaN	NaN	none	none	NaN	0	0
401	2	48	1	auto	0.5	NaN	green	0	right	right	GLO	none	far	1	intact	intact	01d130af-ffff-4cd1-b39d-35c47d44cd3d_fps_avg_aud.mp4	0	0	NaN	NaN	NaN	none	none	NaN	0	0
401	2	49	1	auto	0.5	NaN	blue	0	up	up	GLO	none	far	1	intact	intact	Apr2_fps_avg_aud.mp4	0	0	NaN	NaN	NaN	none	none	NaN	0	0
401	2	50	1	auto	0.5	NaN	yellow	0	left	left	GLO	none	far	1	intact	intact	fb42eb92-ecec-41cf-8ef3-e4a7b0a219f1_fps_avg_aud.mp4	0	0	NaN	NaN	NaN	none	none	NaN	0	0
401	2	51	1	auto	0.5	NaN	green	1	up	up	GLO	none	close	0	intact	none	none	0	0	NaN	NaN	NaN	none	none	NaN	0	0
401	2	52	1	auto	0.5	NaN	yellow	0	left	left	GLO	none	far	1	intact	intact	17bc9968-edac-4234-b3eb-c8487676c442_fps_avg_aud.mp4	0	0	NaN	NaN	NaN	none	none	NaN	0	0
401	2	53	1	auto	0.5	NaN	yellow	0	left	left	GLO	none	far	0	intact	none	none	0	0	NaN	NaN	NaN	none	none	NaN	0	0
401	2	54	1	auto	0.5	NaN	red	0	down	down	GLO	none	far	0	intact	none	none	0	0	NaN	NaN	NaN	none	none	NaN	0	0
401	2	55	1	auto	0.5	NaN	red	0	down	down	GLO	none	far	0	intact	none	none	0	0	NaN	NaN	NaN	none	none	NaN	0	0
401	2	56	1	auto	0.5	NaN	green	0	right	right	GLO	none	close	0	intact	none	none	0	0	NaN	NaN	NaN	none	none	NaN	0	0
401	2	57	1	auto	0.5	NaN	yellow	1	down	down	GLO	none	far	1	intact	intact	fdcb9b5f-28c7-4da4-867c-57e1763a716c_fps_avg_aud.mp4	0	0	NaN	NaN	NaN	none	none	NaN	0	0
401	2	58	1	auto	0.5	NaN	green	1	left	left	GLO	none	close	0	intact	none	none	0	0	NaN	NaN	NaN	none	none	NaN	0	0
401	2	59	1	auto	0.5	NaN	yellow	0	left	left	GLO	none	far	1	intact	intact	3787d5d7-bc65-4720-b93c-344c8ca85f75_fps_avg_aud.mp4	0	0	NaN	NaN	NaN	none	none	NaN	0	0
401	2	60	1	auto	0.5	NaN	red	0	down	down	GLO	none	far	1	intact	intact	July_2015_(2)_fps_avg_aud.mp4	0	0	NaN	NaN	NaN	none	none	NaN	0	0
401	2	61	1	auto	0.5	NaN	yellow	1	right	right	GLO	none	close	0	intact	none	none	0	0	NaN	NaN	NaN	none	none	NaN	0	0
401	2	62	1	auto	0.5	NaN	blue	0	up	up	GLO	none	close	1	intact	intact	648cf5a2-5dc9-46b3-bf61-9e51533fa6ad_fps_avg_aud.mp4	0	0	NaN	NaN	NaN	none	none	NaN	0	0
401	2	63	1	auto	0.5	NaN	green	1	down	down	GLO	none	far	1	intact	intact	June_2016_(4)_fps_avg_aud.mp4	0	0	NaN	NaN	NaN	none	none	NaN	0	0
401	2	64	1	auto	0.5	NaN	red	1	left	left	GLO	none	close	1	intact	intact	8131cc16-56a9-45d8-8dab-20ead5938e0a_fps_avg_aud.mp4	0	0	NaN	NaN	NaN	none	none	NaN	0	0
401	2	65	1	auto	0.5	NaN	red	0	down	down	GLO	none	close	1	intact	intact	caf1693c-0eef-47ff-aee9-5348af86759e_fps_avg_aud.mp4	0	0	NaN	NaN	NaN	none	none	NaN	0	0
401	2	66	1	auto	0.5	NaN	yellow	1	up	up	GLO	none	far	0	intact	none	none	0	0	NaN	NaN	NaN	none	none	NaN	0	0
401	2	67	1	auto	0.5	NaN	blue	0	up	up	GLO	none	far	1	intact	intact	beb38bd6-976e-468f-9f23-b6b41f12ce11_fps_avg_aud.mp4	0	0	NaN	NaN	NaN	none	none	NaN	0	0
401	2	68	1	auto	0.5	NaN	red	1	up	up	GLO	none	far	1	intact	intact	9c75459a-7dcd-444e-93fd-b229653b8169_fps_avg_aud.mp4	0	0	NaN	NaN	NaN	none	none	NaN	0	0
401	2	69	1	auto	0.5	NaN	blue	0	up	up	GLO	none	far	0	intact	none	none	0	0	NaN	NaN	NaN	none	none	NaN	0	0
401	2	70	1	auto	0.5	NaN	green	1	down	down	GLO	none	far	1	intact	intact	Nov24_fps_avg_aud.mp4	0	0	NaN	NaN	NaN	none	none	NaN	0	0
401	2	71	1	auto	0.5	NaN	blue	1	left	left	GLO	none	far	1	intact	intact	9bd7a199-78f1-4f14-9fde-3a11c0ebd236_fps_avg_aud.mp4	0	0	NaN	NaN	NaN	none	none	NaN	0	0
401	2	72	1	auto	0.5	NaN	red	1	right	right	GLO	none	close	0	intact	none	none	0	0	NaN	NaN	NaN	none	none	NaN	0	0
401	2	73	1	auto	0.5	NaN	green	0	right	right	GLO	none	close	0	intact	none	none	0	0	NaN	NaN	NaN	none	none	NaN	0	0
401	2	74	1	auto	0.5	NaN	red	1	right	right	GLO	none	far	1	intact	intact	17cc3183-9fa6-42da-8814-3bcbf562eceb_fps_avg_aud.mp4	0	0	NaN	NaN	NaN	none	none	NaN	0	0
401	2	75	1	auto	0.5	NaN	green	1	left	left	GLO	none	close	1	intact	intact	Jun24_fps_avg_aud.mp4	0	0	NaN	NaN	NaN	none	none	NaN	0	0
401	2	76	1	auto	0.5	NaN	green	0	right	right	GLO	none	close	1	intact	intact	315e95e4-d9b0-4497-8992-fa67c8970229_fps_avg_aud.mp4	0	0	NaN	NaN	NaN	none	none	NaN	0	0
401	2	77	1	auto	0.5	NaN	blue	0	up	up	GLO	none	close	1	intact	intact	e3992607-d25b-430c-bd18-12cb4a6d1b28_fps_avg_aud.mp4	0	0	NaN	NaN	NaN	none	none	NaN	0	0
401	2	78	1	auto	0.5	NaN	yellow	0	left	left	GLO	none	far	1	intact	intact	24481237-3ead-4e6a-9a61-be95f34bf5f2_fps_avg_aud.mp4	0	0	NaN	NaN	NaN	none	none	NaN	0	0
401	2	79	1	auto	0.5	NaN	green	0	right	right	GLO	none	far	0	intact	none	none	0	0	NaN	NaN	NaN	none	none	NaN	0	0
401	2	80	1	auto	0.5	NaN	blue	0	up	up	GLO	none	close	1	intact	intact	cea732af-276b-4e98-ac0e-85adfd7a4545_fps_avg_aud.mp4	0	0	NaN	NaN	NaN	none	none	NaN	0	0
401	2	81	1	auto	0.5	NaN	yellow	1	right	right	GLO	none	far	1	intact	intact	9df4c83d-45cc-4501-be4d-279a04192ba4_fps_avg_aud.mp4	0	0	NaN	NaN	NaN	none	none	NaN	0	0
401	2	82	1	auto	0.5	NaN	blue	0	up	up	GLO	none	close	0	intact	none	none	0	0	NaN	NaN	NaN	none	none	NaN	0	0
401	2	83	1	auto	0.5	NaN	green	0	right	right	GLO	none	far	0	intact	none	none	0	0	NaN	NaN	NaN	none	none	NaN	0	0
401	2	84	1	auto	0.5	NaN	blue	1	left	left	GLO	none	close	1	intact	intact	049f3843-4d05-4200-8b41-7c0b71c68f4c_fps_avg_aud.mp4	0	0	NaN	NaN	NaN	none	none	NaN	0	0
401	2	85	1	auto	0.5	NaN	green	0	right	right	GLO	none	far	0	intact	none	none	0	0	NaN	NaN	NaN	none	none	NaN	0	0
401	2	86	1	auto	0.5	NaN	yellow	1	down	down	GLO	none	far	1	intact	intact	089179b5-68cb-4167-89fa-52f69549f728_fps_avg_aud.mp4	0	0	NaN	NaN	NaN	none	none	NaN	0	0
401	2	87	1	auto	0.5	NaN	yellow	0	left	left	GLO	none	far	1	intact	intact	September_14_2016_fps_avg_aud.mp4	0	0	NaN	NaN	NaN	none	none	NaN	0	0
401	2	88	1	auto	0.5	NaN	red	0	down	down	GLO	none	far	1	intact	intact	05a4f0ad-5d14-4bd5-8c2b-7db284b369ce_fps_avg_aud.mp4	0	0	NaN	NaN	NaN	none	none	NaN	0	0
401	2	89	1	auto	0.5	NaN	green	1	down	down	GLO	none	close	0	intact	none	none	0	0	NaN	NaN	NaN	none	none	NaN	0	0
401	2	90	1	auto	0.5	NaN	blue	1	down	down	GLO	none	far	1	intact	intact	Mar23_fps_avg_aud.mp4	0	0	NaN	NaN	NaN	none	none	NaN	0	0
401	2	91	1	auto	0.5	NaN	blue	0	up	up	GLO	none	far	0	intact	none	none	0	0	NaN	NaN	NaN	none	none	NaN	0	0
401	2	92	1	auto	0.5	NaN	blue	0	up	up	GLO	none	close	1	intact	intact	Jun20_fps_avg_aud.mp4	0	0	NaN	NaN	NaN	none	none	NaN	0	0
401	2	93	1	auto	0.5	NaN	green	0	right	right	GLO	none	close	0	intact	none	none	0	0	NaN	NaN	NaN	none	none	NaN	0	0
401	3	1	1	self	1.5	1.51598	blue	0	up	up	GLO	left	far	1	intact	intact	f08bb9b7-0409-482c-9084-de15481ab2b3_fps_avg_aud.mp4	0	0	0.716622	0	1	up	blue	1	0	0
401	3	2	1	self	1.5	1.51636	green	0	right	right	GLO	right	close	1	intact	intact	533b0238-357b-409c-8d86-25285970eb98_fps_avg_aud.mp4	0	0	0.799881	0	1	left	yellow	0	0	0
401	3	3	1	self	1.5	1.51675	yellow	0	left	left	GLO	right	far	1	intact	intact	a24b6226-d6e8-4655-b874-d79fefacec8c_fps_avg_aud.mp4	1	17	0.750375	0.0771072	2	right	green	0	0	0
401	3	4	1	self	1.5	1.51714	yellow	0	left	left	GLO	left	far	1	intact	intact	Aug18_fps_avg_aud.mp4	0	0	0.995154	0	1	down	red	0	0	0
401	3	5	1	self	1.5	1.51577	green	1	up	up	GLO	left	far	1	intact	intact	Aug1_fps_avg_aud.mp4	0	0	0.544145	0	1	up	blue	0	0	0
401	3	6	1	self	1.5	1.51637	blue	0	up	up	GLO	right	far	1	intact	intact	8b0c9e6a-53bd-46f6-908f-7a8316798b92_fps_avg_aud.mp4	0	0	0.666529	0	1	up	blue	1	0	0
401	3	7	1	self	1.5	1.51633	blue	0	up	up	GLO	right	close	1	intact	intact	e066eed1-ff30-4572-8429-cde771b0bc43_fps_avg_aud.mp4	0	0	0.574826	0	1	up	blue	1	0	0
401	3	8	1	self	1.5	1.5162	yellow	0	left	left	GLO	left	close	1	intact	intact	Dec27_fps_avg_aud.mp4	0	0	0.917055	0	1	right	green	0	0	0
401	3	9	1	self	1.5	1.51608	green	0	right	right	GLO	right	far	1	intact	intact	33a33f4c-72c6-457d-828e-a576d3e3a8e3_fps_avg_aud.mp4	0	0	1.01678	0	1	left	yellow	0	0	0
401	3	10	1	self	1.5	1.51739	yellow	1	down	down	GLO	right	close	1	intact	intact	Oct31_fps_avg_aud.mp4	0	0	0.749504	0	1	left	yellow	1	0	0
401	3	11	1	self	1.5	1.51738	yellow	0	left	left	GLO	left	far	1	intact	intact	June_17_2015_fps_avg_aud.mp4	0	0	0.566905	0	1	right	green	0	0	0
401	3	12	1	self	1.5	1.51637	green	1	down	down	GLO	left	close	1	intact	intact	November_2015_(2)_fps_avg_aud.mp4	0	0	0.549431	0	1	down	red	0	0	0
401	3	13	1	self	1.5	1.51654	red	0	down	down	GLO	left	close	1	intact	intact	240bdf76-9a30-49ea-9534-079281412955_fps_avg_aud.mp4	0	0	0.81769	0	1	right	green	0	0	0
401	3	14	1	self	0.5	0.517313	red	0	down	down	GLO	right	close	1	intact	intact	may_28_2015_fps_avg_aud.mp4	0	0	0.526986	0	1	left	yellow	0	0	0
401	3	15	1	self	0.5	0.516267	yellow	0	left	left	GLO	right	far	1	intact	intact	July27_fps_avg_aud.mp4	0	0	0.967626	0	1	right	green	0	0	0
401	3	16	1	self	0.5	0.516098	red	0	down	down	GLO	right	far	1	intact	intact	e57a35d6-39b7-4b9c-a4a1-844e0bebd3c1_fps_avg_aud.mp4	0	0	0.566756	0	1	left	yellow	0	0	0
401	3	17	1	self	0.5	0.517154	red	1	up	up	GLO	right	close	1	intact	intact	January_2016_(3)_fps_avg_aud.mp4	0	0	0.941485	0	1	down	red	1	0	0
401	3	18	1	self	0.5	0.516395	blue	0	up	up	GLO	right	far	1	intact	intact	Oct7_fps_avg_aud.mp4	0	0	0.600965	0	1	up	blue	1	0	0
401	3	19	1	self	0.5	0.516289	yellow	0	left	left	GLO	right	close	1	intact	intact	November_2016_fps_avg_aud.mp4	0	0	0.650899	0	1	left	yellow	1	0	0
401	3	20	1	self	0.5	0.516407	yellow	0	left	left	GLO	left	far	1	intact	intact	e5e9435d-267e-4f33-bd02-80f8eeedf363_fps_avg_aud.mp4	0	0	1.2434	0	1	left	yellow	1	0	0
401	3	21	1	self	0.5	0.516838	red	1	left	left	GLO	left	close	1	intact	intact	Jul30_fps_avg_aud.mp4	0	0	1.03401	0	1	right	green	0	0	0
401	3	22	1	self	0.5	0.516903	green	1	down	down	GLO	left	far	1	intact	intact	Dec31_fps_avg_aud.mp4	0	0	1.08336	0	1	right	green	1	0	0
401	3	23	1	self	0.5	0.516281	red	1	left	left	GLO	left	close	1	intact	intact	ed9842b1-ccb5-4e6e-8fcb-d81eb3d6f297_fps_avg_aud.mp4	0	0	0.82892	0	1	down	red	1	0	0
401	3	24	1	self	0.5	0.516846	yellow	0	left	left	GLO	right	far	1	intact	intact	bb75a9e7-75e9-4641-8e0c-ecaabf7a7e69(1)_fps_avg_aud.mp4	0	0	0.860073	0	1	left	yellow	1	0	0
401	3	25	1	self	0.5	0.516084	red	1	up	up	GLO	left	close	1	intact	intact	Aug11_fps_avg_aud.mp4	0	0	1.07839	0	1	down	red	1	0	0
401	3	26	1	self	0.5	0.517659	green	1	left	left	GLO	right	close	1	intact	intact	241df9f5-fbf5-49b9-a03c-764ba4b6ace9_fps_avg_aud.mp4	0	0	1.04978	0	1	right	green	1	0	0
401	3	27	1	self	0.5	0.517526	blue	1	right	right	GLO	right	close	1	intact	intact	a3a57263-6857-435d-87b3-5c44ae53e10a_fps_avg_aud.mp4	0	0	0.53349	0	1	up	blue	1	0	0
401	3	28	1	self	0.5	0.517104	green	1	down	down	GLO	right	close	1	intact	intact	342c3db7-0e7e-4cf9-b04c-0d7bba48d8bb_fps_avg_aud.mp4	0	0	1.46652	0	1	left	yellow	0	0	0
401	3	29	1	self	0.5	0.516461	red	0	down	down	GLO	left	far	1	intact	intact	4492b756-14ac-4694-8c38-fa7503b864e1_fps_avg_aud.mp4	0	0	1.45945	0	1	down	red	1	0	0
401	3	30	1	self	0.5	0.517045	blue	1	down	down	GLO	left	far	1	intact	intact	Aug30_fps_avg_aud.mp4	0	0	0.750681	0	1	up	blue	1	0	0
401	3	31	1	self	0.5	NaN	yellow	1	right	right	GLO	none	far	1	intact	intact	July25_fps_avg_aud.mp4	0	0	NaN	NaN	NaN	none	none	NaN	0	0
401	3	32	1	self	0.5	NaN	green	0	right	right	GLO	none	far	1	intact	intact	2d9948f5-94d5-495f-a74e-80174a3c508a_fps_avg_aud.mp4	0	0	NaN	NaN	NaN	none	none	NaN	0	0
401	3	33	1	self	0.5	NaN	red	0	down	down	GLO	none	far	1	intact	intact	June_2016_fps_avg_aud.mp4	0	0	NaN	NaN	NaN	none	none	NaN	0	0
401	3	34	1	self	0.5	NaN	red	1	up	up	GLO	none	far	1	intact	intact	d0082a79-d6fc-4855-80df-f443f4a14e37_fps_avg_aud.mp4	0	0	NaN	NaN	NaN	none	none	NaN	0	0
401	3	35	1	self	0.5	NaN	blue	0	up	up	GLO	none	far	1	intact	intact	e2244423-2494-4cef-96da-ceaa115b3e8d_fps_avg_aud.mp4	0	0	NaN	NaN	NaN	none	none	NaN	0	0
401	3	36	1	self	0.5	NaN	red	0	down	down	GLO	none	far	1	intact	intact	34317ec5-8b9d-4b06-8954-49f3b4c2619c_fps_avg_aud.mp4	0	0	NaN	NaN	NaN	none	none	NaN	0	0
401	3	37	1	self	0.5	NaN	blue	0	up	up	GLO	none	far	1	intact	intact	339eedaf-ff90-439f-b68a-797258b27c12_fps_avg_aud.mp4	0	0	NaN	NaN	NaN	none	none	NaN	0	0
401	3	38	1	self	0.5	NaN	green	1	down	down	GLO	none	far	1	intact	intact	73d0e54a-1b4c-4f00-a562-b71360349bdf_fps_avg_aud.mp4	0	0	NaN	NaN	NaN	none	none	NaN	0	0
401	3	39	1	self	0.5	NaN	red	1	up	up	GLO	none	close	1	intact	intact	6d873e1d-8ad7-4688-a181-c3322982e4a6_fps_avg_aud.mp4	0	0	NaN	NaN	NaN	none	none	NaN	0	0
401	3	40	1	self	0.5	NaN	blue	1	right	right	GLO	none	far	1	intact	intact	18d4ec1c-7f36-4828-8594-27b6bfd3c309_fps_avg_aud.mp4	0	0	NaN	NaN	NaN	none	none	NaN	0	0
401	3	41	1	self	0.5	NaN	yellow	1	down	down	GLO	none	close	1	intact	intact	9c75459a-7dcd-444e-93fd-b229653b8169_fps_avg_aud.mp4	0	0	NaN	NaN	NaN	none	none	NaN	0	0
401	3	42	1	self	0.5	NaN	red	1	left	left	GLO	none	far	1	intact	intact	January_2016_(1)_fps_avg_aud.mp4	0	0	NaN	NaN	NaN	none	none	NaN	0	0
401	3	43	1	self	0.5	NaN	blue	1	down	down	GLO	none	close	1	intact	intact	March_15_2016_fps_avg_aud.mp4	0	0	NaN	NaN	NaN	none	none	NaN	0	0
401	3	44	1	self	0.5	NaN	green	1	left	left	GLO	none	close	1	intact	intact	17bc9968-edac-4234-b3eb-c8487676c442_fps_avg_aud.mp4	0	0	NaN	NaN	NaN	none	none	NaN	0	0
401	3	45	1	self	0.5	NaN	red	0	down	down	GLO	none	far	1	intact	intact	af1072d0-b5fe-435b-b10d-545750eb973b_fps_avg_aud.mp4	0	0	NaN	NaN	NaN	none	none	NaN	0	0
401	3	46	1	self	0.5	NaN	green	1	up	up	GLO	none	far	1	intact	intact	6ce71e9b-76db-4300-af8c-23df366c03d0_fps_avg_aud.mp4	0	0	NaN	NaN	NaN	none	none	NaN	0	0
401	3	47	1	self	0.5	NaN	green	0	right	right	GLO	none	close	1	intact	intact	Feb19_fps_avg_aud.mp4	0	0	NaN	NaN	NaN	none	none	NaN	0	0
401	3	48	1	self	0.5	NaN	yellow	1	right	right	GLO	none	close	1	intact	intact	abff9cfd-d67a-47e2-bc3f-92551e8414e2(1)_fps_avg_aud.mp4	0	0	NaN	NaN	NaN	none	none	NaN	0	0
401	3	49	1	self	0.5	NaN	blue	0	up	up	GLO	none	close	1	intact	intact	Jan5_fps_avg_aud.mp4	0	0	NaN	NaN	NaN	none	none	NaN	0	0
401	3	50	1	self	0.5	NaN	green	0	right	right	GLO	none	close	1	intact	intact	May18_fps_avg_aud.mp4	0	0	NaN	NaN	NaN	none	none	NaN	0	0
401	3	51	1	self	0.5	NaN	blue	1	left	left	GLO	none	far	1	intact	intact	August_3_2016_fps_avg_aud.mp4	0	0	NaN	NaN	NaN	none	none	NaN	0	0
401	3	52	1	self	0.5	NaN	blue	0	up	up	GLO	none	close	1	intact	intact	01d130af-ffff-4cd1-b39d-35c47d44cd3d_fps_avg_aud.mp4	0	0	NaN	NaN	NaN	none	none	NaN	0	0
401	3	53	1	self	0.5	NaN	blue	1	left	left	GLO	none	close	1	intact	intact	April_2015_fps_avg_aud.mp4	0	0	NaN	NaN	NaN	none	none	NaN	0	0
401	3	54	1	self	0.5	NaN	green	1	up	up	GLO	none	close	1	intact	intact	Sep22_fps_avg_aud.mp4	0	0	NaN	NaN	NaN	none	none	NaN	0	0
401	3	55	1	self	0.5	NaN	red	0	down	down	GLO	none	far	1	intact	intact	May_2016_fps_avg_aud.mp4	0	0	NaN	NaN	NaN	none	none	NaN	0	0
401	3	56	1	self	0.5	NaN	yellow	1	right	right	GLO	none	far	1	intact	intact	June_2016_(2)_fps_avg_aud.mp4	0	0	NaN	NaN	NaN	none	none	NaN	0	0
401	3	57	1	self	0.5	NaN	green	1	up	up	GLO	none	far	1	intact	intact	de0e4ce1-0f87-4077-b69c-578049fe4691_fps_avg_aud.mp4	0	0	NaN	NaN	NaN	none	none	NaN	0	0
401	3	58	1	self	0.5	NaN	green	1	down	down	GLO	none	far	1	intact	intact	637444dd-82ca-432a-beab-7eb721de8b71_fps_avg_aud.mp4	0	0	NaN	NaN	NaN	none	none	NaN	0	0
401	3	59	1	self	0.5	NaN	blue	0	up	up	GLO	none	close	1	intact	intact	108f257a-1892-40f5-b9e3-6eb0557bc08c(1)_fps_avg_aud.mp4	0	0	NaN	NaN	NaN	none	none	NaN	0	0
401	3	60	1	self	0.5	NaN	blue	1	left	left	GLO	none	close	1	intact	intact	e3992607-d25b-430c-bd18-12cb4a6d1b28_fps_avg_aud.mp4	0	0	NaN	NaN	NaN	none	none	NaN	0	0
401	3	61	1	self	0.5	NaN	red	1	left	left	GLO	none	far	1	intact	intact	Apr16_fps_avg_aud.mp4	0	0	NaN	NaN	NaN	none	none	NaN	0	0
401	3	62	1	self	0.5	NaN	yellow	0	left	left	GLO	none	far	1	intact	intact	Nov19_fps_avg_aud.mp4	0	0	NaN	NaN	NaN	none	none	NaN	0	0
401	3	63	1	self	0.5	NaN	blue	0	up	up	GLO	none	close	1	intact	intact	Apr15_fps_avg_aud.mp4	0	0	NaN	NaN	NaN	none	none	NaN	0	0
401	3	64	1	self	0.5	NaN	yellow	1	down	down	GLO	none	far	1	intact	intact	Mar21_fps_avg_aud.mp4	0	0	NaN	NaN	NaN	none	none	NaN	0	0
401	3	65	1	self	0.5	NaN	green	1	up	up	GLO	none	far	1	intact	intact	6189325b-e315-4417-8d81-a8cae54059df_fps_avg_aud.mp4	0	0	NaN	NaN	NaN	none	none	NaN	0	0
401	3	66	1	self	0.5	NaN	blue	1	right	right	GLO	none	close	1	intact	intact	b2b0c46b-c908-4752-b5cb-16abe9f2c872_fps_avg_aud.mp4	0	0	NaN	NaN	NaN	none	none	NaN	0	0
401	3	67	1	self	0.5	NaN	green	1	down	down	GLO	none	far	1	intact	intact	e67cff3b-48fd-4045-95c8-a92189606742_fps_avg_aud.mp4	0	0	NaN	NaN	NaN	none	none	NaN	0	0
401	3	68	1	self	0.5	NaN	yellow	1	right	right	GLO	none	far	1	intact	intact	Apr7_fps_avg_aud.mp4	0	0	NaN	NaN	NaN	none	none	NaN	0	0
401	3	69	1	self	0.5	NaN	yellow	0	left	left	GLO	none	close	1	intact	intact	92171dfa-1474-4f0d-8c37-ab1d226fa154(1)_fps_avg_aud.mp4	0	0	NaN	NaN	NaN	none	none	NaN	0	0
401	3	70	1	self	0.5	NaN	red	1	right	right	GLO	none	close	1	intact	intact	fd4a95d6-f171-4c0b-8de2-e9ca909c9eff_fps_avg_aud.mp4	0	0	NaN	NaN	NaN	none	none	NaN	0	0
401	3	71	1	self	0.5	NaN	blue	0	up	up	GLO	none	far	1	intact	intact	a444c8a7-2f60-4193-8052-530d5b35ed4c_fps_avg_aud.mp4	0	0	NaN	NaN	NaN	none	none	NaN	0	0
401	3	72	1	self	0.5	NaN	green	1	left	left	GLO	none	far	1	intact	intact	May25_fps_avg_aud.mp4	0	0	NaN	NaN	NaN	none	none	NaN	0	0
401	3	73	1	self	0.5	NaN	red	0	down	down	GLO	none	close	1	intact	intact	May11_fps_avg_aud.mp4	0	0	NaN	NaN	NaN	none	none	NaN	0	0
401	3	74	1	self	0.5	NaN	green	0	right	right	GLO	none	far	1	intact	intact	5b49bfdf-720d-437c-bb4f-da8fd9a14bdf_fps_avg_aud.mp4	0	0	NaN	NaN	NaN	none	none	NaN	0	0
401	3	75	1	self	0.5	NaN	blue	1	down	down	GLO	none	far	1	intact	intact	bd6f74c6-a8d8-4bf6-bf1e-d008c6733318_fps_avg_aud.mp4	0	0	NaN	NaN	NaN	none	none	NaN	0	0
401	3	76	1	self	0.5	NaN	red	0	down	down	GLO	none	close	1	intact	intact	e1d4becd-1ca6-41b0-82ab-58d50a368204_fps_avg_aud.mp4	0	0	NaN	NaN	NaN	none	none	NaN	0	0
401	3	77	1	self	0.5	NaN	yellow	0	left	left	GLO	none	far	1	intact	intact	0602c0a8-082a-4bca-9f5b-70795017698f_fps_avg_aud.mp4	0	0	NaN	NaN	NaN	none	none	NaN	0	0
401	3	78	1	self	0.5	NaN	blue	1	right	right	GLO	none	far	1	intact	intact	b151d8a6-cbea-4f58-ab0f-6c21bc545c88_fps_avg_aud.mp4	0	0	NaN	NaN	NaN	none	none	NaN	0	0
401	3	79	1	self	0.5	NaN	blue	1	right	right	GLO	none	close	1	intact	intact	33d05c43-ee7c-4877-9419-344c4009c91e_fps_avg_aud.mp4	0	0	NaN	NaN	NaN	none	none	NaN	0	0
401	3	80	1	self	0.5	NaN	red	1	up	up	GLO	none	close	1	intact	intact	6247a4ca-9a6e-47c1-91f4-5a9925a1c125_fps_avg_aud.mp4	0	0	NaN	NaN	NaN	none	none	NaN	0	0
401	3	81	1	self	0.5	NaN	green	0	right	right	GLO	none	far	1	intact	intact	02c095ee-b711-4594-b27d-87092fa292bb_fps_avg_aud.mp4	0	0	NaN	NaN	NaN	none	none	NaN	0	0
401	3	82	1	self	0.5	NaN	red	0	down	down	GLO	none	far	1	intact	intact	Dec21_fps_avg_aud.mp4	0	0	NaN	NaN	NaN	none	none	NaN	0	0
401	3	83	1	self	0.5	NaN	red	0	down	down	GLO	none	far	1	intact	intact	ac9d3ec9-e996-4c12-9cee-27057f644981_fps_avg_aud.mp4	0	0	NaN	NaN	NaN	none	none	NaN	0	0
401	3	84	1	self	0.5	NaN	blue	1	down	down	GLO	none	far	1	intact	intact	4db3f410-b7dd-4157-a876-374c50f0a479_fps_avg_aud.mp4	0	0	NaN	NaN	NaN	none	none	NaN	0	0
401	3	85	1	self	0.5	NaN	red	1	right	right	GLO	none	far	1	intact	intact	September_2016_fps_avg_aud.mp4	0	0	NaN	NaN	NaN	none	none	NaN	0	0
401	3	86	1	self	0.5	NaN	green	0	right	right	GLO	none	far	1	intact	intact	Jun17_fps_avg_aud.mp4	0	0	NaN	NaN	NaN	none	none	NaN	0	0
401	3	87	1	self	0.5	NaN	yellow	1	right	right	GLO	none	far	1	intact	intact	fd318c50-e133-4dc8-918b-b97094aebdf0_fps_avg_aud.mp4	0	0	NaN	NaN	NaN	none	none	NaN	0	0
401	3	88	1	self	0.5	NaN	red	1	left	left	GLO	none	far	1	intact	intact	Jun1_fps_avg_aud.mp4	0	0	NaN	NaN	NaN	none	none	NaN	0	0
401	3	89	1	self	0.5	NaN	blue	1	down	down	GLO	none	far	1	intact	intact	Jul10_fps_avg_aud.mp4	0	0	NaN	NaN	NaN	none	none	NaN	0	0
401	3	90	1	self	0.5	NaN	green	0	right	right	GLO	none	far	1	intact	intact	ab1e6c91-a115-4b2d-8609-b4e2233254d6_fps_avg_aud.mp4	0	0	NaN	NaN	NaN	none	none	NaN	0	0
401	3	91	1	self	0.5	NaN	red	1	left	left	GLO	none	close	1	intact	intact	919b74e0-dd30-4685-b063-8556e1e10c55_fps_avg_aud.mp4	0	0	NaN	NaN	NaN	none	none	NaN	0	0
401	3	92	1	self	0.5	NaN	green	1	up	up	GLO	none	close	1	intact	intact	0ab2bdff-924c-46d2-b610-671d6f4f673e_fps_avg_aud.mp4	0	0	NaN	NaN	NaN	none	none	NaN	0	0
401	3	93	1	self	0.5	NaN	green	1	down	down	GLO	none	far	1	intact	intact	5c88b1ee-81ac-4658-85d2-80068b2841d0_fps_avg_aud.mp4	0	0	NaN	NaN	NaN	none	none	NaN	0	0
401	4	1	0	auto	1.5	1.51711	green	0	right	right	GLO	left	far	0	intact	none	none	0	0	1.01655	0	1	left	yellow	0	-0.001	low
401	4	2	0	auto	1.5	1.51588	green	1	up	up	GLO	left	close	1	intact	intact	919b74e0-dd30-4685-b063-8556e1e10c55_fps_avg_aud.mp4	1	0	1.06654	0	1	right	green	1	0	low
401	4	3	0	auto	1.5	1.51705	green	1	left	left	GLO	left	close	0	intact	none	none	0	0	1.25053	0	1	down	red	0	-0.001	low
401	4	4	0	auto	1.5	1.51646	red	0	down	down	GLO	right	far	0	intact	none	none	0	0	0.9505	0	1	left	yellow	0	-0.002	low
401	4	5	0	auto	1.5	1.516	red	1	left	left	GLO	right	far	0	intact	none	none	0	0	2.06718	0	1	right	green	0	-0.003	low
401	4	6	0	auto	1.5	1.51705	green	1	down	down	GLO	left	far	1	intact	intact	bbadcc83-10bb-4a2d-a28a-1d6b44f33770_fps_avg_aud.mp4	1	0	1.31145	0	1	left	yellow	0	-0.004	low
401	4	7	0	auto	1.5	1.51568	blue	0	up	up	GLO	right	close	0	intact	none	none	0	0	0.501472	0	1	up	blue	1	-0.003	low
401	4	8	0	auto	1.5	1.51608	yellow	1	right	right	GLO	left	far	1	intact	intact	f5740bdb-f6a7-4842-9fa8-065f8eed57f4_fps_avg_aud.mp4	1	0	1.25862	0	1	right	green	0	-0.004	low
401	4	9	0	auto	1.5	1.51585	blue	0	up	up	GLO	right	close	0	intact	none	none	0	0	0.650785	0	1	up	blue	1	-0.003	low
401	4	10	0	auto	1.5	1.51714	yellow	1	right	right	GLO	left	far	1	intact	intact	December_2015_(1)_fps_avg_aud.mp4	1	0	0.75143	0	1	left	yellow	1	-0.002	low
401	4	11	0	auto	1.5	1.51735	red	1	right	right	GLO	right	far	1	intact	intact	a390325a-c9a6-4240-9459-3271767e2980_fps_avg_aud.mp4	1	0	1.26544	0	1	down	red	1	-0.001	low
401	4	12	0	auto	1.5	1.51729	red	1	left	left	GLO	right	far	1	intact	intact	226bfd42-14d0-45a1-82ba-233f4ddec70a_fps_avg_aud.mp4	1	50	0.866265	0.181479	2	down	red	1	0	low
401	4	13	0	auto	1.5	1.51667	red	1	left	left	GLO	right	far	1	intact	intact	July27_fps_avg_aud.mp4	1	0	0.905333	0	1	down	red	1	0.001	low
401	4	14	0	auto	1.5	1.51746	green	0	right	right	GLO	right	far	1	intact	intact	92171dfa-1474-4f0d-8c37-ab1d226fa154(1)_fps_avg_aud.mp4	1	0	1.0636	0	1	left	yellow	0	0	low
401	4	15	0	auto	1.5	1.51702	yellow	0	left	left	GLO	right	close	1	intact	intact	cb6ef54e-2b4c-4064-8d68-1ca2b2e8a47c_fps_avg_aud.mp4	1	0	0.633813	0	1	right	green	0	-0.001	low
401	4	16	0	auto	1.5	1.51711	red	0	down	down	GLO	right	close	0	intact	none	none	0	0	0.0333092	0	1	down	red	1	0	low
401	4	17	0	auto	1.5	1.51719	blue	0	up	up	GLO	left	far	1	intact	intact	beb38bd6-976e-468f-9f23-b6b41f12ce11_fps_avg_aud.mp4	1	0	0.616385	0	1	up	blue	1	0.001	low
401	4	18	0	auto	1.5	1.51603	red	1	left	left	GLO	right	close	1	intact	intact	f1caa1d5-1230-4918-b000-58763883bff3_fps_avg_aud.mp4	1	0	1.54562	0	1	down	red	1	0.002	low
401	4	19	0	auto	1.5	1.51679	green	1	down	down	GLO	left	far	0	intact	none	none	0	0	0.899816	0	1	left	yellow	0	0.001	low
401	4	20	0	auto	1.5	1.51738	blue	0	up	up	GLO	left	close	1	intact	intact	73d0e54a-1b4c-4f00-a562-b71360349bdf_fps_avg_aud.mp4	1	0	0.6428	0	1	up	blue	1	0.002	low
401	4	21	0	auto	1.5	1.51712	green	1	down	down	GLO	left	close	0	intact	none	none	0	0	1.66634	0	1	right	green	1	0.003	low
401	4	22	0	auto	1.5	1.51743	yellow	1	down	down	GLO	right	far	0	intact	none	none	0	0	0.666836	0	1	left	yellow	1	0.004	low
401	4	23	0	auto	1.5	1.51677	yellow	0	left	left	GLO	right	close	1	intact	intact	0fca764b-7147-4307-96dc-cc1807afd905_fps_avg_aud.mp4	1	0	0.808148	0	1	left	yellow	1	0.005	low
401	4	24	0	auto	1.5	1.517	red	0	down	down	GLO	left	far	0	intact	none	none	0	0	0.783985	0	1	down	red	1	0.006	low
401	4	25	0	auto	1.5	NaN	red	0	down	down	GLO	none	close	1	intact	intact	10110e03-827e-4196-8676-097b68a947cd_fps_avg_aud.mp4	0	0	NaN	NaN	NaN	none	none	NaN	0.006	low
401	4	26	0	auto	1.5	NaN	green	0	right	right	GLO	none	close	0	intact	none	none	0	0	NaN	NaN	NaN	none	none	NaN	0.006	low
401	4	27	0	auto	1.5	NaN	blue	0	up	up	GLO	none	far	1	intact	intact	e67cff3b-48fd-4045-95c8-a92189606742_fps_avg_aud.mp4	0	0	NaN	NaN	NaN	none	none	NaN	0.006	low
401	4	28	0	auto	1.5	NaN	green	0	right	right	GLO	none	far	1	intact	intact	639855c9-f7b0-4d31-8ca6-c12b36f03058_fps_avg_aud.mp4	0	0	NaN	NaN	NaN	none	none	NaN	0.006	low
401	4	29	0	auto	1.5	NaN	yellow	0	left	left	GLO	none	far	1	intact	intact	4d681112-07b2-4265-a7e1-d188bc4f8511_fps_avg_aud.mp4	0	0	NaN	NaN	NaN	none	none	NaN	0.006	low
401	4	30	0	auto	1.5	NaN	yellow	0	left	left	GLO	none	close	1	intact	intact	5c88b1ee-81ac-4658-85d2-80068b2841d0_fps_avg_aud.mp4	0	0	NaN	NaN	NaN	none	none	NaN	0.006	low
401	4	31	0	auto	1.5	NaN	blue	1	left	left	GLO	none	far	1	intact	intact	023396f6-bdb5-478d-a725-e32d4f6b7be9_fps_avg_aud.mp4	0	0	NaN	NaN	NaN	none	none	NaN	0.006	low
401	4	32	0	auto	1.5	NaN	red	1	right	right	GLO	none	far	1	intact	intact	Oct7_fps_avg_aud.mp4	0	0	NaN	NaN	NaN	none	none	NaN	0.006	low
401	4	33	0	auto	1.5	NaN	red	1	right	right	GLO	none	far	1	intact	intact	4492b756-14ac-4694-8c38-fa7503b864e1_fps_avg_aud.mp4	0	0	NaN	NaN	NaN	none	none	NaN	0.006	low
401	4	34	0	auto	1.5	NaN	blue	0	up	up	GLO	none	close	1	intact	intact	December_2015_fps_avg_aud.mp4	0	0	NaN	NaN	NaN	none	none	NaN	0.006	low
401	4	35	0	auto	1.5	NaN	green	0	right	right	GLO	none	far	0	intact	none	none	0	0	NaN	NaN	NaN	none	none	NaN	0.006	low
401	4	36	0	auto	1.5	NaN	blue	0	up	up	GLO	none	close	1	intact	intact	cfead01b-2f72-4131-8069-3f2052f352e3_fps_avg_aud.mp4	0	0	NaN	NaN	NaN	none	none	NaN	0.006	low
401	4	37	0	auto	1.5	NaN	yellow	1	down	down	GLO	none	far	1	intact	intact	1fd9b798-493d-4dfc-a8df-678bad207055_fps_avg_aud.mp4	0	0	NaN	NaN	NaN	none	none	NaN	0.006	low
401	5	1	0	auto	1.5	1.51724	red	0	down	down	GLO	right	far	1	intact	intact	6189325b-e315-4417-8d81-a8cae54059df_fps_avg_aud.mp4	1	0	0.754117	0	1	down	red	1	0.016	high
401	5	2	0	auto	1.5	1.51644	yellow	1	up	up	GLO	right	far	1	intact	intact	Jun1_fps_avg_aud.mp4	1	0	0.974929	0	1	left	yellow	1	0.026	high
401	5	3	0	auto	1.5	1.51718	blue	1	right	right	GLO	left	far	1	intact	intact	91a36f37-93be-4754-9ddb-f173f29574e1_fps_avg_aud.mp4	1	0	0.682484	0	1	up	blue	1	0.036	high
401	5	4	0	auto	1.5	1.51646	red	0	down	down	GLO	right	far	1	intact	intact	b4701d82-e6b3-47a6-bf5c-596818c9d778_fps_avg_aud.mp4	1	0	0.958211	0	1	down	red	1	0.046	high
401	5	5	0	auto	1.5	1.51673	yellow	0	left	left	GLO	left	close	1	intact	intact	Aug11_fps_avg_aud.mp4	1	0	0.834177	0	1	left	yellow	1	0.056	high
401	5	6	0	auto	1.5	1.5173	green	1	down	down	GLO	right	far	1	intact	intact	f7063dab-b99f-4ced-99a1-d8e067de3ccd_fps_avg_aud.mp4	1	0	1.01048	0	1	right	green	1	0.066	high
401	5	7	0	auto	1.5	1.51715	red	1	right	right	GLO	left	close	0	intact	none	none	0	0	0.967214	0	1	down	red	1	0.076	high
401	5	8	0	auto	1.5	1.51722	yellow	1	down	down	GLO	right	far	1	intact	intact	16ad27d6-0718-41b8-94e7-1c37789ce6cb_fps_avg_aud.mp4	1	0	0.721942	0	1	left	yellow	1	0.086	high
401	5	9	0	auto	1.5	1.51725	red	1	up	up	GLO	left	far	0	intact	none	none	0	0	0.866775	0	1	down	red	1	0.096	high
401	5	10	0	auto	1.5	1.51596	red	1	right	right	GLO	right	far	1	intact	intact	01d130af-ffff-4cd1-b39d-35c47d44cd3d_fps_avg_aud.mp4	1	0	0.769961	0	1	down	red	1	0.106	high
401	5	11	0	auto	1.5	1.51573	blue	0	up	up	GLO	left	close	0	intact	none	none	0	0	0.484793	0	1	up	blue	1	0.116	high
401	5	12	0	auto	1.5	1.51611	yellow	0	left	left	GLO	right	close	1	intact	intact	Sep24_fps_avg_aud.mp4	1	0	1.30016	0	1	left	yellow	1	0.126	high
401	5	13	0	auto	1.5	1.51724	yellow	0	left	left	GLO	right	far	1	intact	intact	69d4f1be-9d50-4cd5-8475-2fb4a62d07e2_fps_avg_aud.mp4	1	0	0.672596	0	1	left	yellow	1	0.136	high
401	5	14	0	auto	1.5	1.51635	yellow	1	right	right	GLO	left	close	0	intact	none	none	0	0	0.61648	0	1	left	yellow	1	0.146	high
401	5	15	0	auto	1.5	1.51648	blue	1	left	left	GLO	left	far	0	intact	none	none	0	0	0.683945	0	1	up	blue	1	0.156	high
401	5	16	0	auto	1.5	1.51737	blue	1	right	right	GLO	left	close	0	intact	none	none	0	0	0.578754	0	1	right	green	0	0.146	high
401	5	17	0	auto	1.5	1.51701	yellow	1	down	down	GLO	left	close	1	intact	intact	Oct19_fps_avg_aud.mp4	1	0	0.865804	0	1	left	yellow	1	0.156	high
401	5	18	0	auto	1.5	1.51705	green	1	up	up	GLO	right	far	1	intact	intact	e8afc4ba-88ff-4bff-928a-27c2c4fe446f_fps_avg_aud.mp4	1	0	1.16398	0	1	right	green	1	0.166	high
401	5	19	0	auto	1.5	1.51674	yellow	1	down	down	GLO	left	close	1	intact	intact	339eedaf-ff90-439f-b68a-797258b27c12_fps_avg_aud.mp4	1	0	0.932692	0	1	left	yellow	1	0.176	high
401	5	20	0	auto	1.5	1.51574	red	1	up	up	GLO	left	far	1	intact	intact	75c41469-2e99-4ed0-b25f-04259686f11b_fps_avg_aud.mp4	1	0	0.755607	0	1	down	red	1	0.186	high
401	5	21	0	auto	1.5	1.51665	blue	0	up	up	GLO	right	far	1	intact	intact	592c03b4-010b-4f30-8521-fbf254e827b0_fps_avg_aud.mp4	1	0	0.445781	0	1	up	blue	1	0.196	high
401	5	22	0	auto	1.5	1.517	yellow	0	left	left	GLO	left	close	0	intact	none	none	0	0	0.667206	0	1	left	yellow	1	0.206	high
401	5	23	0	auto	1.5	1.51593	blue	1	down	down	GLO	right	far	0	intact	none	none	0	0	0.793202	0	1	up	blue	1	0.216	high
401	5	24	0	auto	1.5	1.51565	yellow	1	down	down	GLO	left	far	1	intact	intact	359d82dd-3d4c-4029-a89b-66422745c056_fps_avg_aud.mp4	1	0	0.779422	0	1	left	yellow	1	0.226	high
401	5	25	0	auto	1.5	1.51701	blue	1	left	left	GLO	left	far	1	intact	intact	Otober_11_2016_fps_avg_aud.mp4	1	0	0.550826	0	1	up	blue	1	0.236	high
401	5	26	0	auto	1.5	1.51603	yellow	1	up	up	GLO	right	close	1	intact	intact	bd3765b8-eb64-440a-a4a8-b6804686fcae_fps_avg_aud.mp4	1	0	0.817288	0	1	left	yellow	1	0.246	high
401	5	27	0	auto	1.5	NaN	yellow	1	down	down	GLO	none	close	0	intact	none	none	0	0	NaN	NaN	NaN	none	none	NaN	0.246	high
401	5	28	0	auto	1.5	NaN	green	1	up	up	GLO	none	close	0	intact	none	none	0	0	NaN	NaN	NaN	none	none	NaN	0.246	high
401	5	29	0	auto	1.5	NaN	blue	1	right	right	GLO	none	close	1	intact	intact	c5792f9d-c420-493b-acf2-46528babd08c_fps_avg_aud.mp4	0	0	NaN	NaN	NaN	none	none	NaN	0.246	high
401	5	30	0	auto	1.5	NaN	red	0	down	down	GLO	none	close	0	intact	none	none	0	0	NaN	NaN	NaN	none	none	NaN	0.246	high
401	5	31	0	auto	1.5	NaN	red	0	down	down	GLO	none	far	1	intact	intact	e8c6c3f9-933c-4d98-9013-684e2acc2e1e_fps_avg_aud.mp4	0	0	NaN	NaN	NaN	none	none	NaN	0.246	high
401	5	32	0	auto	1.5	NaN	yellow	1	right	right	GLO	none	far	0	intact	none	none	0	0	NaN	NaN	NaN	none	none	NaN	0.246	high
401	5	33	0	auto	1.5	NaN	green	0	right	right	GLO	none	far	1	intact	intact	June_112016_fps_avg_aud.mp4	0	0	NaN	NaN	NaN	none	none	NaN	0.246	high
401	5	34	0	auto	1.5	NaN	green	1	up	up	GLO	none	far	0	intact	none	none	0	0	NaN	NaN	NaN	none	none	NaN	0.246	high
401	5	35	0	auto	1.5	NaN	blue	1	left	left	GLO	none	far	0	intact	none	none	0	0	NaN	NaN	NaN	none	none	NaN	0.246	high
401	5	36	0	auto	1.5	NaN	green	0	right	right	GLO	none	close	1	intact	intact	Sep27_fps_avg_aud.mp4	0	0	NaN	NaN	NaN	none	none	NaN	0.246	high
401	5	37	0	auto	1.5	NaN	blue	1	right	right	GLO	none	close	0	intact	none	none	0	0	NaN	NaN	NaN	none	none	NaN	0.246	high
401	6	1	0	self	1.5	1.51689	blue	1	left	left	GLO	right	far	1	intact	intact	Jan10_fps_avg_aud.mp4	0	0	0.696612	0	1	up	blue	1	0.247	low
401	6	2	0	self	1.5	1.51702	green	0	right	right	GLO	right	far	1	intact	intact	may_2015_fps_avg_aud.mp4	0	0	0.957747	0	1	left	yellow	0	0.246	low
401	6	3	0	self	1.5	1.51647	blue	1	right	right	GLO	right	close	1	intact	intact	b1ade3a7-f9fd-4229-8a80-df334c184531_fps_avg_aud.mp4	0	0	0.60023	0	1	up	blue	1	0.247	low
401	6	4	0	self	1.5	1.5165	green	0	right	right	GLO	right	far	1	intact	intact	June_2016_(1)_fps_avg_aud.mp4	0	0	0.66721	0	1	left	yellow	0	0.246	low
401	6	5	0	self	1.5	1.51664	yellow	1	right	right	GLO	left	far	1	intact	intact	Jun19_fps_avg_aud.mp4	0	0	0.583886	0	1	right	green	0	0.245	low
401	6	6	0	self	1.5	1.51728	blue	0	up	up	GLO	right	close	1	intact	intact	f0c0b40e-f75d-4798-8deb-2b993faeea9f_fps_avg_aud.mp4	0	0	0.5988	0	1	up	blue	1	0.246	low
401	6	7	0	self	1.5	1.51652	blue	1	left	left	GLO	right	close	1	intact	intact	bfb38b58-a56a-427a-a233-3b6663beed7c_fps_avg_aud.mp4	0	0	0.666975	0	1	up	blue	1	0.247	low
401	6	8	0	self	1.5	1.51682	blue	0	up	up	GLO	right	far	1	intact	intact	19665232-505f-47ba-bfb2-2e9668369ce4_fps_avg_aud.mp4	0	0	0.68249	0	1	up	blue	1	0.248	low
401	6	9	0	self	1.5	1.5164	green	0	right	right	GLO	right	far	1	intact	intact	Nov1_fps_avg_aud.mp4	0	0	1.16602	0	1	left	yellow	0	0.247	low
401	6	10	0	self	1.5	1.51669	green	0	right	right	GLO	left	close	1	intact	intact	Jun30_fps_avg_aud.mp4	0	0	0.782852	0	1	left	yellow	0	0.246	low
401	6	11	0	self	1.5	1.51613	red	0	down	down	GLO	left	close	1	intact	intact	Jun24_fps_avg_aud.mp4	0	0	0.764389	0	1	down	red	1	0.247	low
401	6	12	0	self	1.5	1.51728	blue	0	up	up	GLO	right	far	1	intact	intact	f22090a0-ec04-4dfd-99ca-7810b9650ec8_fps_avg_aud.mp4	0	0	0.560426	0	1	up	blue	1	0.248	low
401	6	13	0	self	1.5	1.51615	green	0	right	right	GLO	left	close	1	intact	intact	05c4b895-8d51-48d4-93fd-4e37519019a0_fps_avg_aud.mp4	0	0	0.680541	0	1	left	yellow	0	0.247	low
401	6	14	0	self	1.5	1.51583	blue	1	right	right	GLO	right	far	1	intact	intact	Dec21_fps_avg_aud.mp4	0	0	1.01754	0	1	up	blue	1	0.248	low
401	6	15	0	self	1.5	1.51605	red	1	right	right	GLO	right	close	1	intact	intact	65e09f1a-138e-4ec0-8b5b-5702c47341ad_fps_avg_aud.mp4	0	0	0.85106	0	1	down	red	1	0.249	low
401	6	16	0	self	1.5	1.51749	blue	1	right	right	GLO	right	close	1	intact	intact	Mar23_fps_avg_aud.mp4	0	0	0.678308	0	1	up	blue	1	0.25	low
401	6	17	0	self	1.5	1.51652	blue	1	left	left	GLO	left	far	1	intact	intact	1b336470-7a10-4cc7-aee4-3a5e6e6e551e_fps_avg_aud.mp4	0	0	0.683996	0	1	up	blue	1	0.251	low
401	6	18	0	self	1.5	1.51609	red	0	down	down	GLO	right	close	1	intact	intact	5a4ed86a-8ef5-4056-813c-083746f26c03_fps_avg_aud.mp4	0	0	0.566608	0	1	down	red	1	0.252	low
401	6	19	0	self	1.5	1.51644	red	0	down	down	GLO	right	close	1	intact	intact	17bc9968-edac-4234-b3eb-c8487676c442_fps_avg_aud.mp4	0	0	0.716959	0	1	down	red	1	0.253	low
401	6	20	0	self	1.5	1.51635	blue	0	up	up	GLO	left	close	1	intact	intact	e066eed1-ff30-4572-8429-cde771b0bc43_fps_avg_aud.mp4	0	0	0.534232	0	1	up	blue	1	0.254	low
401	6	21	0	self	1.5	1.5167	blue	1	left	left	GLO	right	far	1	intact	intact	ae961612-f052-4542-a69c-195487c48d51_fps_avg_aud.mp4	0	0	0.733702	0	1	up	blue	1	0.255	low
401	6	22	0	self	1.5	1.51714	green	0	right	right	GLO	right	far	1	intact	intact	4f243f72-5a08-4b19-aa43-2448c9f0545d_fps_avg_aud.mp4	0	0	0.726464	0	1	left	yellow	0	0.254	low
401	6	23	0	self	1.5	1.51666	green	1	left	left	GLO	left	close	1	intact	intact	3787d5d7-bc65-4720-b93c-344c8ca85f75_fps_avg_aud.mp4	0	0	0.949838	0	1	left	yellow	0	0.253	low
401	6	24	0	self	1.5	1.51575	yellow	0	left	left	GLO	left	far	1	intact	intact	690b1209-9514-4bd6-9698-3a990594f223_fps_avg_aud.mp4	0	0	0.591875	0	1	right	green	0	0.252	low
401	6	25	0	self	1.5	1.51664	red	0	down	down	GLO	left	close	1	intact	intact	4db3f410-b7dd-4157-a876-374c50f0a479_fps_avg_aud.mp4	0	0	0.682464	0	1	down	red	1	0.253	low
401	6	26	0	self	1.5	1.51715	yellow	0	left	left	GLO	left	close	1	intact	intact	Apr16_fps_avg_aud.mp4	0	0	1.03998	0	1	right	green	0	0.252	low
401	6	27	0	self	1.5	1.51632	yellow	1	up	up	GLO	right	close	1	intact	intact	january_31_2016_fps_avg_aud.mp4	0	0	0.680503	0	1	right	green	0	0.251	low
401	6	28	0	self	1.5	NaN	green	0	right	right	GLO	none	far	1	intact	intact	80bae024-90b7-4369-88be-93c1000385ef_fps_avg_aud.mp4	0	0	NaN	NaN	NaN	none	none	NaN	0.251	low
401	6	29	0	self	1.5	NaN	yellow	0	left	left	GLO	none	close	1	intact	intact	b35409aa-6325-4736-bc0d-526af5b26b83_fps_avg_aud.mp4	0	0	NaN	NaN	NaN	none	none	NaN	0.251	low
401	6	30	0	self	1.5	NaN	green	1	up	up	GLO	none	far	1	intact	intact	jan31_2016_fps_avg_aud.mp4	0	0	NaN	NaN	NaN	none	none	NaN	0.251	low
401	6	31	0	self	1.5	NaN	red	0	down	down	GLO	none	close	1	intact	intact	53f27130-5392-4410-b48f-90a712697cfb_fps_avg_aud.mp4	0	0	NaN	NaN	NaN	none	none	NaN	0.251	low
401	6	32	0	self	1.5	NaN	yellow	1	right	right	GLO	none	close	1	intact	intact	Aug12_fps_avg_aud.mp4	0	0	NaN	NaN	NaN	none	none	NaN	0.251	low
401	6	33	0	self	1.5	NaN	blue	1	right	right	GLO	none	far	1	intact	intact	a5a4b0ce-b05f-41d9-b172-00b13f0d8828_fps_avg_aud.mp4	0	0	NaN	NaN	NaN	none	none	NaN	0.251	low
401	6	34	0	self	1.5	NaN	blue	0	up	up	GLO	none	close	1	intact	intact	Apr15_fps_avg_aud.mp4	0	0	NaN	NaN	NaN	none	none	NaN	0.251	low
401	6	35	0	self	1.5	NaN	green	1	down	down	GLO	none	close	1	intact	intact	caf1693c-0eef-47ff-aee9-5348af86759e_fps_avg_aud.mp4	0	0	NaN	NaN	NaN	none	none	NaN	0.251	low
401	6	36	0	self	1.5	NaN	red	0	down	down	GLO	none	far	1	intact	intact	August_2,_2015_fps_avg_aud.mp4	0	0	NaN	NaN	NaN	none	none	NaN	0.251	low
401	6	37	0	self	1.5	NaN	red	0	down	down	GLO	none	far	1	intact	intact	July25_fps_avg_aud.mp4	0	0	NaN	NaN	NaN	none	none	NaN	0.251	low
401	7	1	0	self	1.5	1.51647	blue	0	up	up	GLO	left	far	1	intact	intact	8021b6b2-93f5-4b8a-981e-576768624e6e_fps_avg_aud.mp4	0	0	0.600392	0	1	up	blue	1	0.261	high
401	7	2	0	self	1.5	1.51569	red	0	down	down	GLO	left	close	1	intact	intact	July_2015_fps_avg_aud.mp4	0	0	0.767124	0	1	down	red	1	0.271	high
401	7	3	0	self	1.5	1.51701	blue	1	down	down	GLO	right	far	1	intact	intact	may_2015_fps_avg_aud.mp4	0	0	0.76714	0	1	up	blue	1	0.281	high
401	7	4	0	self	1.5	1.5162	green	0	right	right	GLO	right	close	1	intact	intact	f08bb9b7-0409-482c-9084-de15481ab2b3_fps_avg_aud.mp4	0	0	0.974686	0	1	left	yellow	0	0.271	high
401	7	5	0	self	1.5	1.5159	green	0	right	right	GLO	left	close	1	intact	intact	b2f11719-a2c9-405c-93a2-abd13a835201_fps_avg_aud.mp4	0	0	0.651196	0	1	left	yellow	0	0.261	high
401	7	6	0	self	1.5	1.51559	green	0	right	right	GLO	right	far	1	intact	intact	b70b2fc0-8728-4c47-a0fd-a887a904f1ee_fps_avg_aud.mp4	0	0	0.583964	0	1	left	yellow	0	0.251	high
401	7	7	0	self	1.5	1.51736	green	0	right	right	GLO	left	far	1	intact	intact	May10_fps_avg_aud.mp4	0	0	0.543945	0	1	left	yellow	0	0.241	high
401	7	8	0	self	1.5	1.51707	blue	0	up	up	GLO	right	far	1	intact	intact	Dec27_fps_avg_aud.mp4	0	0	0.614866	0	1	up	blue	1	0.251	high
401	7	9	0	self	1.5	1.51698	blue	0	up	up	GLO	right	far	1	intact	intact	108f257a-1892-40f5-b9e3-6eb0557bc08c(1)_fps_avg_aud.mp4	0	0	0.466624	0	1	up	blue	1	0.261	high
401	7	10	0	self	1.5	1.51697	green	1	left	left	GLO	left	close	1	intact	intact	Febraury_2016_fps_avg_aud.mp4	0	0	0.949853	0	1	left	yellow	0	0.251	high
401	7	11	0	self	1.5	1.51648	red	0	down	down	GLO	left	far	1	intact	intact	030a135d-605a-42ea-902a-469aeded471a_fps_avg_aud.mp4	0	0	0.799661	0	1	down	red	1	0.261	high
401	7	12	0	self	1.5	1.5172	yellow	0	left	left	GLO	right	far	1	intact	intact	e67cff3b-48fd-4045-95c8-a92189606742_fps_avg_aud.mp4	0	0	0.83261	0	1	right	green	0	0.251	high
401	7	13	0	self	1.5	1.51567	blue	0	up	up	GLO	right	close	1	intact	intact	667c6586-78bc-49b6-b207-12bdfa8fdd9e_fps_avg_aud.mp4	0	0	0.500678	0	1	up	blue	1	0.261	high
401	7	14	0	self	1.5	1.517	green	1	up	up	GLO	left	close	1	intact	intact	Jun21_fps_avg_aud.mp4	0	0	0.450419	0	1	left	yellow	0	0.251	high
401	7	15	0	self	1.5	1.51662	green	0	right	right	GLO	left	close	1	intact	intact	Jan4_fps_avg_aud.mp4	0	0	0.599937	0	1	left	yellow	0	0.241	high
401	7	16	0	self	1.5	1.51611	blue	1	down	down	GLO	left	close	1	intact	intact	0fb53cd4-6c5a-4fee-a2f6-e37a34d597fc_fps_avg_aud.mp4	0	0	0.609949	0	1	up	blue	1	0.251	high
401	7	17	0	self	1.5	1.51647	red	1	right	right	GLO	left	close	1	intact	intact	8b186ca3-65a3-4740-8611-404063ae0ec7_fps_avg_aud.mp4	0	0	0.8833	0	1	down	red	1	0.261	high
401	7	18	0	self	1.5	1.51612	red	1	left	left	GLO	left	close	1	intact	intact	4d617426-ab8c-4125-9dcf-178529ca54a1_fps_avg_aud.mp4	0	0	1.13267	0	1	down	red	1	0.271	high
401	7	19	0	self	1.5	1.51642	red	0	down	down	GLO	right	far	1	intact	intact	November_14_2016_fps_avg_aud.mp4	0	0	0.71233	0	1	down	red	1	0.281	high
401	7	20	0	self	1.5	1.51594	green	0	right	right	GLO	left	far	1	intact	intact	May8_fps_avg_aud.mp4	0	0	0.88444	0	1	left	yellow	0	0.271	high
401	7	21	0	self	1.5	1.51654	green	1	up	up	GLO	right	far	1	intact	intact	Nov7_fps_avg_aud.mp4	0	0	0.60038	0	1	left	yellow	0	0.261	high
401	7	22	0	self	1.5	1.51707	green	1	left	left	GLO	right	close	1	intact	intact	July6_fps_avg_aud.mp4	0	0	0.716448	0	1	left	yellow	0	0.251	high
401	7	23	0	self	1.5	1.5163	green	0	right	right	GLO	left	far	1	intact	intact	May27_fps_avg_aud.mp4	0	0	0.57263	0	1	left	yellow	0	0.241	high
401	7	24	0	self	1.5	1.51614	yellow	1	right	right	GLO	right	close	1	intact	intact	August_2016_fps_avg_aud.mp4	0	0	0.528329	0	1	right	green	0	0.231	high
401	7	25	0	self	1.5	1.51713	green	0	right	right	GLO	right	far	1	intact	intact	23c8ed33-90c4-4605-8822-6270c3a6ca34_fps_avg_aud.mp4	0	0	0.983401	0	1	left	yellow	0	0.221	high
401	7	26	0	self	1.5	1.51779	red	0	down	down	GLO	right	far	1	intact	intact	942f20a2-a776-400d-9488-0c1647ebd585_fps_avg_aud.mp4	0	0	0.900341	0	1	down	red	1	0.231	high
401	7	27	0	self	1.5	1.51702	green	1	up	up	GLO	left	far	1	intact	intact	Nov11_fps_avg_aud.mp4	0	0	0.933248	0	1	left	yellow	0	0.221	high
401	7	28	0	self	1.5	NaN	yellow	1	down	down	GLO	none	far	1	intact	intact	june_19_2015_fps_avg_aud.mp4	0	0	NaN	NaN	NaN	none	none	NaN	0.221	high
401	7	29	0	self	1.5	NaN	red	1	up	up	GLO	none	far	1	intact	intact	039e9adf-0d8d-4d86-a59c-e7770b0ae616_fps_avg_aud.mp4	0	0	NaN	NaN	NaN	none	none	NaN	0.221	high
401	7	30	0	self	1.5	NaN	green	0	right	right	GLO	none	far	1	intact	intact	Nov24_fps_avg_aud.mp4	0	0	NaN	NaN	NaN	none	none	NaN	0.221	high
401	7	31	0	self	1.5	NaN	blue	0	up	up	GLO	none	far	1	intact	intact	Nmarch122015_fps_avg_aud.mp4	0	0	NaN	NaN	NaN	none	none	NaN	0.221	high
401	7	32	0	self	1.5	NaN	blue	1	down	down	GLO	none	close	1	intact	intact	b2b0c46b-c908-4752-b5cb-16abe9f2c872_fps_avg_aud.mp4	0	0	NaN	NaN	NaN	none	none	NaN	0.221	high
401	7	33	0	self	1.5	NaN	green	0	right	right	GLO	none	far	1	intact	intact	690b1209-9514-4bd6-9698-3a990594f223_fps_avg_aud.mp4	0	0	NaN	NaN	NaN	none	none	NaN	0.221	high
401	7	34	0	self	1.5	NaN	blue	0	up	up	GLO	none	far	1	intact	intact	October_8_2016_fps_avg_aud.mp4	0	0	NaN	NaN	NaN	none	none	NaN	0.221	high
401	7	35	0	self	1.5	NaN	green	0	right	right	GLO	none	far	1	intact	intact	1affd9f8-27af-4e8b-9985-5f3abbee6931_fps_avg_aud.mp4	0	0	NaN	NaN	NaN	none	none	NaN	0.221	high
401	7	36	0	self	1.5	NaN	red	0	down	down	GLO	none	close	1	intact	intact	Nov1_fps_avg_aud.mp4	0	0	NaN	NaN	NaN	none	none	NaN	0.221	high
401	7	37	0	self	1.5	NaN	yellow	1	down	down	GLO	none	close	1	intact	intact	058bdf98-bb64-4851-92f5-ffad71866ee8_fps_avg_aud.mp4	0	0	NaN	NaN	NaN	none	none	NaN	0.221	high
401	8	1	0	self	1.5	1.51688	blue	1	right	right	GLO	left	far	1	intact	intact	0ee64e11-96b9-4476-a12c-a99a4b58a965_fps_avg_aud.mp4	0	0	0.733483	0	1	up	blue	1	0.231	high
401	8	2	0	self	1.5	1.51697	blue	0	up	up	GLO	right	far	1	intact	intact	ac9d3ec9-e996-4c12-9cee-27057f644981_fps_avg_aud.mp4	0	0	0.607993	0	1	up	blue	1	0.241	high
401	8	3	0	self	1.5	1.51698	yellow	1	up	up	GLO	left	close	1	intact	intact	b2b0c46b-c908-4752-b5cb-16abe9f2c872_fps_avg_aud.mp4	0	0	1.06592	0	1	left	yellow	1	0.251	high
401	8	4	0	self	1.5	1.51609	blue	1	right	right	GLO	right	far	1	intact	intact	25a8b4d4-d5c7-4aab-af49-84ebba90c3be_fps_avg_aud.mp4	0	0	0.599391	0	1	up	blue	1	0.261	high
401	8	5	0	self	1.5	1.51568	red	0	down	down	GLO	left	close	1	intact	intact	ea8c6916-8b70-4539-be72-29487b43dc07_fps_avg_aud.mp4	0	0	0.761954	0	1	down	red	1	0.271	high
401	8	6	0	self	1.5	1.51638	blue	1	left	left	GLO	right	far	1	intact	intact	caf1693c-0eef-47ff-aee9-5348af86759e_fps_avg_aud.mp4	0	0	0.675456	0	1	up	blue	1	0.281	high
401	8	7	0	self	1.5	1.51599	red	0	down	down	GLO	left	far	1	intact	intact	23c8ed33-90c4-4605-8822-6270c3a6ca34_fps_avg_aud.mp4	0	0	0.750886	0	1	down	red	1	0.291	high
401	8	8	0	self	1.5	1.51694	blue	1	down	down	GLO	left	far	1	intact	intact	July2_fps_avg_aud.mp4	0	0	0.613916	0	1	up	blue	1	0.301	high
401	8	9	0	self	1.5	1.51692	yellow	0	left	left	GLO	right	far	1	intact	intact	202647f1-9373-4eb4-ac9a-27bf605f227d_fps_avg_aud.mp4	0	0	0.849579	0	1	left	yellow	1	0.311	high
401	8	10	0	self	1.5	1.51607	red	0	down	down	GLO	right	far	1	intact	intact	July_2016_fps_avg_aud.mp4	0	0	0.734175	0	1	down	red	1	0.321	high
401	8	11	0	self	1.5	1.51674	red	1	left	left	GLO	right	far	1	intact	intact	a66e9cf1-4573-4450-a822-0bcc91474968_fps_avg_aud.mp4	0	0	1.13322	0	1	down	red	1	0.331	high
401	8	12	0	self	1.5	1.5156	yellow	1	right	right	GLO	right	close	1	intact	intact	f9a11fba-d584-4a74-ba4f-e5eb4ac62b73_fps_avg_aud.mp4	0	0	0.843163	0	1	right	green	0	0.321	high
401	8	13	0	self	1.5	1.51568	green	0	right	right	GLO	left	close	1	intact	intact	eccee75e-3f7b-45d7-b4a7-10ac4fce267e_fps_avg_aud.mp4	0	0	1.12567	0	1	right	green	1	0.331	high
401	8	14	0	self	1.5	1.51671	yellow	0	left	left	GLO	left	far	1	intact	intact	b1dabac3-204f-4571-b892-69eb87e805d0_fps_avg_aud.mp4	0	0	0.549472	0	1	left	yellow	1	0.341	high
401	8	15	0	self	1.5	1.51702	yellow	0	left	left	GLO	right	close	1	intact	intact	bd5cc988-d64f-435a-a1d7-3a872e473f76_fps_avg_aud.mp4	0	0	0.75863	0	1	left	yellow	1	0.351	high
401	8	16	0	self	1.5	1.5167	green	1	up	up	GLO	left	far	1	intact	intact	May15_fps_avg_aud.mp4	0	0	0.699374	0	1	right	green	1	0.361	high
401	8	17	0	self	1.5	1.51717	red	1	up	up	GLO	left	far	1	intact	intact	a3e1ae8d-fc6e-4c2a-a65c-9024b3c9f810_fps_avg_aud.mp4	0	0	0.850472	0	1	down	red	1	0.371	high
401	8	18	0	self	1.5	1.51623	red	0	down	down	GLO	right	close	1	intact	intact	089179b5-68cb-4167-89fa-52f69549f728_fps_avg_aud.mp4	0	0	0.817103	0	1	down	red	1	0.381	high
401	8	19	0	self	1.5	1.51633	red	0	down	down	GLO	left	far	1	intact	intact	ac2b9dfa-7a4b-40ef-9499-c883a9127ad7_fps_avg_aud.mp4	0	0	0.967481	0	1	down	red	1	0.391	high
401	8	20	0	self	1.5	1.51621	yellow	1	right	right	GLO	left	close	1	intact	intact	cabd6947-9e88-4e9a-90fa-985b610f3784_fps_avg_aud.mp4	0	0	1.1672	0	1	left	yellow	1	0.401	high
401	8	21	0	self	1.5	1.51646	green	0	right	right	GLO	left	close	1	intact	intact	b442d744-edd6-478c-94f1-be50e05465cc_fps_avg_aud.mp4	0	0	0.745317	0	1	right	green	1	0.411	high
401	8	22	0	self	1.5	1.51648	blue	1	left	left	GLO	left	far	1	intact	intact	b8f7a383-ba3e-49db-977d-18cbd8702864_fps_avg_aud.mp4	0	0	0.600574	0	1	up	blue	1	0.421	high
401	8	23	0	self	1.5	1.51666	green	1	down	down	GLO	left	far	1	intact	intact	79c2a399-1c19-4b6a-a7be-ad19cd183d03_fps_avg_aud.mp4	0	0	1.11683	0	1	left	yellow	0	0.411	high
401	8	24	0	self	1.5	1.51596	yellow	1	right	right	GLO	right	close	1	intact	intact	Dec13_fps_avg_aud.mp4	0	0	0.833102	0	1	left	yellow	1	0.421	high
401	8	25	0	self	1.5	1.51668	red	0	down	down	GLO	right	far	1	intact	intact	Apr30_fps_avg_aud.mp4	0	0	0.658585	0	1	down	red	1	0.431	high
401	8	26	0	self	1.5	1.51667	blue	1	left	left	GLO	left	far	1	intact	intact	11bc07f6-cbc9-48b9-a240-792e373d6a2a_fps_avg_aud.mp4	0	0	0.549627	0	1	up	blue	1	0.441	high
401	8	27	0	self	1.5	NaN	yellow	1	right	right	GLO	none	far	1	intact	intact	5f534c39-dfe8-4a8d-a678-c406bcf9154d_fps_avg_aud.mp4	0	0	NaN	NaN	NaN	none	none	NaN	0.441	high
401	8	28	0	self	1.5	NaN	red	1	right	right	GLO	none	close	1	intact	intact	e57a35d6-39b7-4b9c-a4a1-844e0bebd3c1_fps_avg_aud.mp4	0	0	NaN	NaN	NaN	none	none	NaN	0.441	high
401	8	29	0	self	1.5	NaN	green	1	left	left	GLO	none	far	1	intact	intact	63b4d034-af4a-4a03-8aa0-83818020367c_fps_avg_aud.mp4	0	0	NaN	NaN	NaN	none	none	NaN	0.441	high
401	8	30	0	self	1.5	NaN	blue	0	up	up	GLO	none	close	1	intact	intact	ede4a096-21dc-4ed4-9b28-6df0a7f6fe6b_fps_avg_aud.mp4	0	0	NaN	NaN	NaN	none	none	NaN	0.441	high
401	8	31	0	self	1.5	NaN	red	1	up	up	GLO	none	far	1	intact	intact	34cddff1-7a1a-4e71-be66-8a745a1d42f4_fps_avg_aud.mp4	0	0	NaN	NaN	NaN	none	none	NaN	0.441	high
401	8	32	0	self	1.5	NaN	red	1	left	left	GLO	none	close	1	intact	intact	af1072d0-b5fe-435b-b10d-545750eb973b_fps_avg_aud.mp4	0	0	NaN	NaN	NaN	none	none	NaN	0.441	high
401	8	33	0	self	1.5	NaN	blue	1	right	right	GLO	none	close	1	intact	intact	2ad8c2cc-f109-45c5-925b-f1af257730e3_fps_avg_aud.mp4	0	0	NaN	NaN	NaN	none	none	NaN	0.441	high
401	8	34	0	self	1.5	NaN	blue	0	up	up	GLO	none	far	1	intact	intact	may_28_2015_fps_avg_aud.mp4	0	0	NaN	NaN	NaN	none	none	NaN	0.441	high
401	8	35	0	self	1.5	NaN	red	0	down	down	GLO	none	far	1	intact	intact	Jul30_fps_avg_aud.mp4	0	0	NaN	NaN	NaN	none	none	NaN	0.441	high
401	8	36	0	self	1.5	NaN	yellow	1	down	down	GLO	none	close	1	intact	intact	c939d2dd-f401-4cdf-bab0-fe7457cad0a4_fps_avg_aud.mp4	0	0	NaN	NaN	NaN	none	none	NaN	0.441	high
401	8	37	0	self	1.5	NaN	red	0	down	down	GLO	none	close	1	intact	intact	af0fa101-699c-45fe-9ac0-b3a3d283604b_fps_avg_aud.mp4	0	0	NaN	NaN	NaN	none	none	NaN	0.441	high
401	9	1	0	self	1.5	1.51688	yellow	1	right	right	GLO	right	close	1	intact	intact	cea732af-276b-4e98-ac0e-85adfd7a4545_fps_avg_aud.mp4	0	0	1.37812	0	1	left	yellow	1	0.442	low
401	9	2	0	self	1.5	1.51577	green	0	right	right	GLO	left	far	1	intact	intact	October_14_2016_fps_avg_aud.mp4	0	0	0.550383	0	1	right	green	1	0.443	low
401	9	3	0	self	1.5	1.51674	green	0	right	right	GLO	left	far	1	intact	intact	jun13_fps_avg_aud.mp4	0	0	0.916612	0	1	left	yellow	0	0.442	low
401	9	4	0	self	1.5	1.5158	red	0	down	down	GLO	right	close	1	intact	intact	01790276-7d56-4063-9522-da49270e2a6b_fps_avg_aud.mp4	0	0	0.824676	0	1	down	red	1	0.443	low
401	9	5	0	self	1.5	1.51762	yellow	0	left	left	GLO	right	far	1	intact	intact	Sep22_fps_avg_aud.mp4	0	0	1.15004	0	1	left	yellow	1	0.444	low
401	9	6	0	self	1.5	1.5166	red	0	down	down	GLO	right	close	1	intact	intact	d021cb9c-36bf-48fb-9474-23511a956f6a_fps_avg_aud.mp4	0	0	0.916811	0	1	down	red	1	0.445	low
401	9	7	0	self	1.5	1.51571	yellow	0	left	left	GLO	left	far	1	intact	intact	5b49bfdf-720d-437c-bb4f-da8fd9a14bdf_fps_avg_aud.mp4	0	0	0.849531	0	1	left	yellow	1	0.446	low
401	9	8	0	self	1.5	1.51636	blue	0	up	up	GLO	right	close	1	intact	intact	e3992607-d25b-430c-bd18-12cb4a6d1b28_fps_avg_aud.mp4	0	0	0.600755	0	1	up	blue	1	0.447	low
401	9	9	0	self	1.5	1.51686	yellow	0	left	left	GLO	right	far	1	intact	intact	8fa6e47a-355a-4a52-986e-ef49886619e0_fps_avg_aud.mp4	0	0	0.949969	0	1	left	yellow	1	0.448	low
401	9	10	0	self	1.5	1.51663	blue	1	right	right	GLO	right	far	1	intact	intact	af8a1933-c829-43c1-8393-4abd55081a1d_fps_avg_aud.mp4	0	0	1.30055	0	1	up	blue	1	0.449	low
401	9	11	0	self	1.5	1.51576	blue	1	right	right	GLO	left	close	1	intact	intact	0676fced-76c5-4cb7-bd2b-7d257e147aad_fps_avg_aud.mp4	0	0	0.600634	0	1	up	blue	1	0.45	low
401	9	12	0	self	1.5	1.51598	blue	1	down	down	GLO	right	far	1	intact	intact	Mar23_fps_avg_aud.mp4	0	0	0.800442	0	1	up	blue	1	0.451	low
401	9	13	0	self	1.5	1.51652	green	1	down	down	GLO	right	far	1	intact	intact	Dec13_fps_avg_aud.mp4	0	0	1.63353	0	1	right	green	1	0.452	low
401	9	14	0	self	1.5	1.5163	red	0	down	down	GLO	left	far	1	intact	intact	Apr15_fps_avg_aud.mp4	0	0	0.78291	0	1	down	red	1	0.453	low
401	9	15	0	self	1.5	1.51687	green	0	right	right	GLO	right	close	1	intact	intact	Mar21_fps_avg_aud.mp4	0	0	0.747015	0	1	left	yellow	0	0.452	low
401	9	16	0	self	1.5	1.51741	yellow	1	right	right	GLO	left	close	1	intact	intact	Apr2_fps_avg_aud.mp4	0	0	0.87557	0	1	left	yellow	1	0.453	low
401	9	17	0	self	1.5	1.51669	red	1	right	right	GLO	right	far	1	intact	intact	79c2a399-1c19-4b6a-a7be-ad19cd183d03_fps_avg_aud.mp4	0	0	0.866492	0	1	down	red	1	0.454	low
401	9	18	0	self	1.5	1.51672	blue	0	up	up	GLO	left	far	1	intact	intact	0096623f-bd93-48df-96f9-85a0a749a586_fps_avg_aud.mp4	0	0	0.494245	0	1	up	blue	1	0.455	low
401	9	19	0	self	1.5	1.51641	yellow	0	left	left	GLO	left	far	1	intact	intact	Mar30_fps_avg_aud.mp4	0	0	0.551001	0	1	left	yellow	1	0.456	low
401	9	20	0	self	1.5	1.51661	red	0	down	down	GLO	right	far	1	intact	intact	ab1e6c91-a115-4b2d-8609-b4e2233254d6_fps_avg_aud.mp4	0	0	0.932928	0	1	down	red	1	0.457	low
401	9	21	0	self	1.5	1.51644	red	0	down	down	GLO	left	close	1	intact	intact	2ad8c2cc-f109-45c5-925b-f1af257730e3_fps_avg_aud.mp4	0	0	0.732055	0	1	down	red	1	0.458	low
401	9	22	0	self	1.5	1.51583	yellow	1	down	down	GLO	right	far	1	intact	intact	a9843691-e4cb-4c12-aa70-47f2024c5698_fps_avg_aud.mp4	0	0	1.03553	0	1	left	yellow	1	0.459	low
401	9	23	0	self	1.5	1.51709	blue	0	up	up	GLO	left	close	1	intact	intact	ede4a096-21dc-4ed4-9b28-6df0a7f6fe6b_fps_avg_aud.mp4	0	0	0.6	0	1	up	blue	1	0.46	low
401	9	24	0	self	1.5	1.51616	green	0	right	right	GLO	right	far	1	intact	intact	aaed05cf-98e5-42ad-91f7-ba579fcda996_fps_avg_aud.mp4	0	0	0.450596	0	1	right	green	1	0.461	low
401	9	25	0	self	1.5	1.51615	green	1	up	up	GLO	left	far	1	intact	intact	34cddff1-7a1a-4e71-be66-8a745a1d42f4_fps_avg_aud.mp4	0	0	1.00951	0	1	right	green	1	0.462	low
401	9	26	0	self	1.5	NaN	blue	1	right	right	GLO	none	far	1	intact	intact	Dec31_fps_avg_aud.mp4	0	0	NaN	NaN	NaN	none	none	NaN	0.462	low
401	9	27	0	self	1.5	NaN	green	1	down	down	GLO	none	close	1	intact	intact	Jun20_fps_avg_aud.mp4	0	0	NaN	NaN	NaN	none	none	NaN	0.462	low
401	9	28	0	self	1.5	NaN	red	0	down	down	GLO	none	close	1	intact	intact	06fe833b-37ac-4f46-b915-fda1c2b107fe_fps_avg_aud.mp4	0	0	NaN	NaN	NaN	none	none	NaN	0.462	low
401	9	29	0	self	1.5	NaN	yellow	1	up	up	GLO	none	far	1	intact	intact	f9a11fba-d584-4a74-ba4f-e5eb4ac62b73_fps_avg_aud.mp4	0	0	NaN	NaN	NaN	none	none	NaN	0.462	low
401	9	30	0	self	1.5	NaN	yellow	1	up	up	GLO	none	far	1	intact	intact	745865b0-d7b3-440f-840d-03f3a3ef51b1_fps_avg_aud.mp4	0	0	NaN	NaN	NaN	none	none	NaN	0.462	low
401	9	31	0	self	1.5	NaN	yellow	0	left	left	GLO	none	close	1	intact	intact	November_2015_(2)_fps_avg_aud.mp4	0	0	NaN	NaN	NaN	none	none	NaN	0.462	low
401	9	32	0	self	1.5	NaN	blue	0	up	up	GLO	none	close	1	intact	intact	Feb19_fps_avg_aud.mp4	0	0	NaN	NaN	NaN	none	none	NaN	0.462	low
401	9	33	0	self	1.5	NaN	yellow	0	left	left	GLO	none	close	1	intact	intact	July21_fps_avg_aud.mp4	0	0	NaN	NaN	NaN	none	none	NaN	0.462	low
401	9	34	0	self	1.5	NaN	yellow	0	left	left	GLO	none	close	1	intact	intact	32a37ce7-a199-40eb-b5c5-b974866ffc28_fps_avg_aud.mp4	0	0	NaN	NaN	NaN	none	none	NaN	0.462	low
401	9	35	0	self	1.5	NaN	blue	1	right	right	GLO	none	close	1	intact	intact	0ee64e11-96b9-4476-a12c-a99a4b58a965_fps_avg_aud.mp4	0	0	NaN	NaN	NaN	none	none	NaN	0.462	low
401	9	36	0	self	1.5	NaN	green	0	right	right	GLO	none	far	1	intact	intact	Apr4_fps_avg_aud.mp4	0	0	NaN	NaN	NaN	none	none	NaN	0.462	low
401	9	37	0	self	1.5	NaN	green	0	right	right	GLO	none	far	1	intact	intact	959dfee9-c1d0-4643-9cbd-f9e818b706fa_fps_avg_aud.mp4	0	0	NaN	NaN	NaN	none	none	NaN	0.462	low
401	10	1	0	auto	1.5	1.51691	green	1	down	down	GLO	right	close	0	intact	none	none	0	0	0.900185	0	1	right	green	1	0.463	low
401	10	2	0	auto	1.5	1.516	red	1	up	up	GLO	right	close	1	intact	intact	Apr30_fps_avg_aud.mp4	1	0	1.7368	0	1	down	red	1	0.464	low
401	10	3	0	auto	1.5	1.51692	yellow	0	left	left	GLO	left	far	0	intact	none	none	0	0	0.94209	0	1	left	yellow	1	0.465	low
401	10	4	0	auto	1.5	1.51622	blue	1	right	right	GLO	right	far	1	intact	intact	Apr19_fps_avg_aud.mp4	1	0	1.07917	0	1	up	blue	1	0.466	low
401	10	5	0	auto	1.5	1.51704	blue	0	up	up	GLO	right	close	0	intact	none	none	0	0	0.550945	0	1	up	blue	1	0.467	low
401	10	6	0	auto	1.5	1.51666	red	1	up	up	GLO	right	far	1	intact	intact	e8c6c3f9-933c-4d98-9013-684e2acc2e1e_fps_avg_aud.mp4	1	0	0.885121	0	1	down	red	1	0.468	low
401	10	7	0	auto	1.5	1.51607	blue	1	left	left	GLO	left	close	0	intact	none	none	0	0	0.666961	0	1	up	blue	1	0.469	low
401	10	8	0	auto	1.5	1.51711	green	1	left	left	GLO	left	far	1	intact	intact	a3e1ae8d-fc6e-4c2a-a65c-9024b3c9f810_fps_avg_aud.mp4	1	0	1.19982	0	1	right	green	1	0.47	low
401	10	9	0	auto	1.5	1.51715	red	1	up	up	GLO	right	far	1	intact	intact	86e20a10-46be-4f52-b05b-06877412cf60_fps_avg_aud.mp4	1	0	1.07268	0	1	down	red	1	0.471	low
401	10	10	0	auto	1.5	1.51643	blue	0	up	up	GLO	left	far	0	intact	none	none	0	0	0.617017	0	1	up	blue	1	0.472	low
401	10	11	0	auto	1.5	1.51708	blue	1	right	right	GLO	right	far	1	intact	intact	January_10_2016_fps_avg_aud.mp4	1	0	0.82453	0	1	up	blue	1	0.473	low
401	10	12	0	auto	1.5	1.51737	blue	0	up	up	GLO	left	close	0	intact	none	none	0	0	0.499528	0	1	up	blue	1	0.474	low
401	10	13	0	auto	1.5	1.51681	red	0	down	down	GLO	left	far	0	intact	none	none	0	0	0.83369	0	1	down	red	1	0.475	low
401	10	14	0	auto	1.5	1.51556	blue	1	down	down	GLO	left	close	1	intact	intact	a3a57263-6857-435d-87b3-5c44ae53e10a_fps_avg_aud.mp4	1	0	0.760963	0	1	up	blue	1	0.476	low
401	10	15	0	auto	1.5	1.51703	blue	0	up	up	GLO	left	close	1	intact	intact	c6481c95-a5c1-4e4c-bc78-4d2184182dd4_fps_avg_aud.mp4	1	0	0.595568	0	1	up	blue	1	0.477	low
401	10	16	0	auto	1.5	1.51567	blue	0	up	up	GLO	left	far	1	intact	intact	b5bcd3a2-267e-4413-b730-c3121b8457ab_fps_avg_aud.mp4	1	0	0.485771	0	1	up	blue	1	0.478	low
401	10	17	0	auto	1.5	1.51664	blue	0	up	up	GLO	right	close	1	intact	intact	71f3eec1-1d03-4a49-954e-7a809baeb44b_fps_avg_aud.mp4	1	0	0.52142	0	1	up	blue	1	0.479	low
401	10	18	0	auto	1.5	1.51618	green	1	left	left	GLO	left	close	1	intact	intact	Dec23_fps_avg_aud.mp4	1	0	0.866379	0	1	right	green	1	0.48	low
401	10	19	0	auto	1.5	1.51755	green	0	right	right	GLO	left	far	0	intact	none	none	0	0	0.533888	0	1	right	green	1	0.481	low
401	10	20	0	auto	1.5	1.51652	blue	1	right	right	GLO	left	close	1	intact	intact	15914fca-fb16-47ce-929a-161ca2c1fdf7_fps_avg_aud.mp4	1	0	0.665871	0	1	up	blue	1	0.482	low
401	10	21	0	auto	1.5	1.5169	green	1	up	up	GLO	right	far	1	intact	intact	Oct30_fps_avg_aud.mp4	1	0	1.04078	0	1	right	green	1	0.483	low
401	10	22	0	auto	1.5	1.51662	yellow	0	left	left	GLO	left	close	0	intact	none	none	0	0	0.51719	0	1	left	yellow	1	0.484	low
401	10	23	0	auto	1.5	1.51702	red	0	down	down	GLO	left	far	1	intact	intact	e5e9435d-267e-4f33-bd02-80f8eeedf363_fps_avg_aud.mp4	1	0	1.08471	0	1	down	red	1	0.485	low
401	10	24	0	auto	1.5	1.51688	yellow	1	right	right	GLO	left	far	1	intact	intact	Feb14_fps_avg_aud.mp4	1	0	0.802828	0	1	left	yellow	1	0.486	low
401	10	25	0	auto	1.5	1.51601	green	0	right	right	GLO	left	close	0	intact	none	none	0	0	0.784384	0	1	right	green	1	0.487	low
401	10	26	0	auto	1.5	1.51594	yellow	1	down	down	GLO	left	close	1	intact	intact	17bc9968-edac-4234-b3eb-c8487676c442_fps_avg_aud.mp4	1	0	0.866538	0	1	right	green	0	0.486	low
401	10	27	0	auto	1.5	NaN	yellow	0	left	left	GLO	none	close	1	intact	intact	April_20015_fps_avg_aud.mp4	0	0	NaN	NaN	NaN	none	none	NaN	0.486	low
401	10	28	0	auto	1.5	NaN	red	0	down	down	GLO	none	close	1	intact	intact	August_2,_2015_fps_avg_aud.mp4	0	0	NaN	NaN	NaN	none	none	NaN	0.486	low
401	10	29	0	auto	1.5	NaN	yellow	0	left	left	GLO	none	far	1	intact	intact	cef9c179-f64d-4543-875f-6808da2329b6_fps_avg_aud.mp4	0	0	NaN	NaN	NaN	none	none	NaN	0.486	low
401	10	30	0	auto	1.5	NaN	red	1	left	left	GLO	none	close	1	intact	intact	Jan30_fps_avg_aud.mp4	0	0	NaN	NaN	NaN	none	none	NaN	0.486	low
401	10	31	0	auto	1.5	NaN	yellow	0	left	left	GLO	none	far	1	intact	intact	a5a4b0ce-b05f-41d9-b172-00b13f0d8828_fps_avg_aud.mp4	0	0	NaN	NaN	NaN	none	none	NaN	0.486	low
401	10	32	0	auto	1.5	NaN	red	1	right	right	GLO	none	close	0	intact	none	none	0	0	NaN	NaN	NaN	none	none	NaN	0.486	low
401	10	33	0	auto	1.5	NaN	red	0	down	down	GLO	none	close	1	intact	intact	9bd7a199-78f1-4f14-9fde-3a11c0ebd236_fps_avg_aud.mp4	0	0	NaN	NaN	NaN	none	none	NaN	0.486	low
401	10	34	0	auto	1.5	NaN	yellow	0	left	left	GLO	none	close	1	intact	intact	ea8c6916-8b70-4539-be72-29487b43dc07_fps_avg_aud.mp4	0	0	NaN	NaN	NaN	none	none	NaN	0.486	low
401	10	35	0	auto	1.5	NaN	yellow	0	left	left	GLO	none	far	1	intact	intact	January_2016_fps_avg_aud.mp4	0	0	NaN	NaN	NaN	none	none	NaN	0.486	low
401	10	36	0	auto	1.5	NaN	yellow	1	right	right	GLO	none	far	1	intact	intact	c3c668bd-3353-4887-b3ff-6d0225f5629c_fps_avg_aud.mp4	0	0	NaN	NaN	NaN	none	none	NaN	0.486	low
401	10	37	0	auto	1.5	NaN	yellow	1	down	down	GLO	none	far	1	intact	intact	Jul30_fps_avg_aud.mp4	0	0	NaN	NaN	NaN	none	none	NaN	0.486	low
401	11	1	0	auto	1.5	1.5173	green	0	right	right	GLO	left	close	1	intact	intact	Feb1_fps_avg_aud.mp4	1	0	1.07762	0	1	right	green	1	0.496	high
401	11	2	0	auto	1.5	1.51712	yellow	1	up	up	GLO	left	far	0	intact	none	none	0	0	0.450889	0	1	left	yellow	1	0.506	high
401	11	3	0	auto	1.5	1.51553	yellow	1	down	down	GLO	right	far	1	intact	intact	Jun8_fps_avg_aud.mp4	1	0	0.833539	0	1	left	yellow	1	0.516	high
401	11	4	0	auto	1.5	1.51679	yellow	0	left	left	GLO	right	close	0	intact	none	none	0	0	0.851673	0	1	left	yellow	1	0.526	high
401	11	5	0	auto	1.5	1.51711	yellow	0	left	left	GLO	left	close	0	intact	none	none	0	0	0.549297	0	1	left	yellow	1	0.536	high
401	11	6	0	auto	1.5	1.51694	blue	1	left	left	GLO	right	far	1	intact	intact	October_25_2016_fps_avg_aud.mp4	1	0	0.717366	0	1	up	blue	1	0.546	high
401	11	7	0	auto	1.5	1.51721	blue	0	up	up	GLO	left	close	1	intact	intact	8b38af47-0b70-4682-ac0e-c7a415e91156_fps_avg_aud.mp4	1	5	0.900546	0.0390145	1	up	blue	1	0.556	high
401	11	8	0	auto	1.5	1.51583	green	1	down	down	GLO	right	far	1	intact	intact	b30caa2d-af05-4325-9f3a-3d34dcb611e7_fps_avg_aud.mp4	1	0	1.13177	0	1	right	green	1	0.566	high
401	11	9	0	auto	1.5	1.51696	green	0	right	right	GLO	right	close	1	intact	intact	de76edf3-7c24-4386-8e6c-01dd4c15291d_fps_avg_aud.mp4	1	0	0.731496	0	1	right	green	1	0.576	high
401	11	10	0	auto	1.5	1.51608	yellow	1	right	right	GLO	left	close	0	intact	none	none	0	0	0.494992	0	1	left	yellow	1	0.586	high
401	11	11	0	auto	1.5	1.51687	yellow	1	right	right	GLO	left	far	1	intact	intact	a444c8a7-2f60-4193-8052-530d5b35ed4c_fps_avg_aud.mp4	1	0	1.00026	0	1	left	yellow	1	0.596	high
401	11	12	0	auto	1.5	1.51699	red	0	down	down	GLO	left	close	1	intact	intact	98afb848-1bd2-46a6-89c7-32d60d6d1855_fps_avg_aud.mp4	1	0	0.849786	0	1	down	red	1	0.606	high
401	11	13	0	auto	1.5	1.51566	green	0	right	right	GLO	left	close	1	intact	intact	Mar25_fps_avg_aud.mp4	1	0	0.985918	0	1	right	green	1	0.616	high
401	11	14	0	auto	1.5	1.51594	green	0	right	right	GLO	right	close	1	intact	intact	Nmarch1222015_fps_avg_aud.mp4	1	0	1.05281	0	1	right	green	1	0.626	high
401	11	15	0	auto	1.5	1.51712	green	0	right	right	GLO	right	far	1	intact	intact	July2_fps_avg_aud.mp4	1	0	0.666363	0	1	right	green	1	0.636	high
401	11	16	0	auto	1.5	1.51604	yellow	0	left	left	GLO	right	far	0	intact	none	none	0	0	0.445931	0	1	left	yellow	1	0.646	high
401	11	17	0	auto	1.5	1.51623	red	1	right	right	GLO	left	close	1	intact	intact	02c095ee-b711-4594-b27d-87092fa292bb_fps_avg_aud.mp4	1	0	0.94067	0	1	down	red	1	0.656	high
401	11	18	0	auto	1.5	1.51573	yellow	0	left	left	GLO	left	far	1	intact	intact	Dec4_fps_avg_aud.mp4	1	0	1.31914	0	1	left	yellow	1	0.666	high
401	11	19	0	auto	1.5	1.51665	blue	0	up	up	GLO	left	close	1	intact	intact	e3ba147b-ae8e-4b27-9412-577f6cfd64f4_fps_avg_aud.mp4	1	0	0.656792	0	1	up	blue	1	0.676	high
401	11	20	0	auto	1.5	1.51655	red	0	down	down	GLO	left	far	0	intact	none	none	0	0	0.833853	0	1	down	red	1	0.686	high
401	11	21	0	auto	1.5	1.51707	red	0	down	down	GLO	right	far	1	intact	intact	838aaec1-d86d-4006-a165-4cb3e5f6444b_fps_avg_aud.mp4	1	0	1.0965	0	1	down	red	1	0.696	high
401	11	22	0	auto	1.5	1.51597	blue	1	down	down	GLO	left	close	1	intact	intact	a36f5f1c-60eb-41c0-8ed1-09a4e01342bc_fps_avg_aud.mp4	1	0	0.783741	0	1	up	blue	1	0.706	high
401	11	23	0	auto	1.5	1.51559	blue	1	right	right	GLO	left	close	1	intact	intact	eec24f3a-496f-4cb7-8f48-5bf5530f3e96_fps_avg_aud.mp4	1	0	0.842401	0	1	up	blue	1	0.716	high
401	11	24	0	auto	1.5	1.51692	blue	1	left	left	GLO	left	far	1	intact	intact	January_2016_fps_avg_aud.mp4	1	0	0.750841	0	1	up	blue	1	0.726	high
401	11	25	0	auto	1.5	1.51689	red	0	down	down	GLO	left	close	1	intact	intact	abff9cfd-d67a-47e2-bc3f-92551e8414e2(1)_fps_avg_aud.mp4	1	0	0.799642	0	1	down	red	1	0.736	high
401	11	26	0	auto	1.5	1.51588	yellow	0	left	left	GLO	left	far	1	intact	intact	Nov9_fps_avg_aud.mp4	1	0	0.854229	0	1	right	green	0	0.726	high
401	11	27	0	auto	1.5	NaN	red	0	down	down	GLO	none	close	1	intact	intact	63b4d034-af4a-4a03-8aa0-83818020367c_fps_avg_aud.mp4	0	0	NaN	NaN	NaN	none	none	NaN	0.726	high
