ID	Block	Trials	Practice	VideoStart	ITI	ITI_measured	Color	Conflict	Global	Local	Task	Video_pos	Video_dist	Video_present	Video_cat_cond	Video_cat	Video	VideoPlayed	VideoCheck	RT	DT	Visits	KeyPress	KeyColor	Correct	Reward	RewardCond
402	1	1	1	none	0.5	1.10866	red	1	left	left	GLO	right	close	0	intact	none	none	0	0	1.32958	0	1	down	red	1	0	0
402	1	2	1	none	0.5	0.516619	red	0	down	down	GLO	left	close	0	intact	none	none	0	0	0.749274	0	1	down	red	1	0	0
402	1	3	1	none	0.5	0.517087	red	0	down	down	GLO	left	close	0	intact	none	none	0	0	0.528059	0	1	down	red	1	0	0
402	1	4	1	none	0.5	0.51642	green	0	right	right	GLO	right	close	0	intact	none	none	0	0	2.08074	0	1	right	green	1	0	0
402	1	5	1	none	0.5	0.515886	green	0	right	right	GLO	right	far	0	intact	none	none	0	0	0.628451	0	1	right	green	1	0	0
402	1	6	1	none	0.5	0.516491	red	1	left	left	GLO	right	close	0	intact	none	none	0	0	0.729376	0	1	down	red	1	0	0
402	1	7	1	none	0.5	0.517109	red	1	right	right	GLO	left	close	0	intact	none	none	0	0	0.750808	0	1	down	red	1	0	0
402	1	8	1	none	0.5	0.515804	red	1	left	left	GLO	left	close	0	intact	none	none	0	0	0.76667	0	1	down	red	1	0	0
402	1	9	1	none	0.5	0.516895	yellow	1	down	down	GLO	right	close	0	intact	none	none	0	0	0.732778	0	1	left	yellow	1	0	0
402	1	10	1	none	0.5	0.516866	green	1	up	up	GLO	left	close	0	intact	none	none	0	0	1.04741	0	1	right	green	1	0	0
402	1	11	1	none	0.5	0.517093	red	1	right	right	GLO	right	close	0	intact	none	none	0	0	0.688845	0	1	down	red	1	0	0
402	1	12	1	none	0.5	0.517435	red	1	right	right	GLO	left	far	0	intact	none	none	0	0	1.99907	0	1	down	red	1	0	0
402	1	13	1	none	0.5	0.516298	blue	1	left	left	GLO	right	far	0	intact	none	none	0	0	0.864265	0	1	up	blue	1	0	0
402	1	14	1	none	0.5	0.516866	red	1	up	up	GLO	right	far	0	intact	none	none	0	0	0.647427	0	1	down	red	1	0	0
402	1	15	1	none	0.5	0.516762	green	0	right	right	GLO	left	far	0	intact	none	none	0	0	0.800428	0	1	left	yellow	0	0	0
402	1	16	1	none	0.5	0.516081	blue	1	left	left	GLO	left	far	0	intact	none	none	0	0	0.867215	0	1	up	blue	1	0	0
402	1	17	1	none	0.5	0.517129	blue	1	right	right	GLO	left	close	0	intact	none	none	0	0	0.883373	0	1	up	blue	1	0	0
402	1	18	1	none	0.5	0.516403	blue	0	up	up	GLO	right	close	0	intact	none	none	0	0	0.951508	0	1	up	blue	1	0	0
402	1	19	1	none	0.5	0.515972	yellow	1	right	right	GLO	right	far	0	intact	none	none	0	0	0.828701	0	1	left	yellow	1	0	0
402	1	20	1	none	0.5	0.51598	blue	1	down	down	GLO	right	far	0	intact	none	none	0	0	0.878905	0	1	up	blue	1	0	0
402	1	21	1	none	0.5	0.516745	blue	1	right	right	GLO	right	far	0	intact	none	none	0	0	0.812763	0	1	up	blue	1	0	0
402	1	22	1	none	0.5	0.516177	blue	1	down	down	GLO	right	close	0	intact	none	none	0	0	0.782624	0	1	up	blue	1	0	0
402	1	23	1	none	0.5	0.516522	blue	1	down	down	GLO	left	close	0	intact	none	none	0	0	0.642484	0	1	up	blue	1	0	0
402	1	24	1	none	0.5	0.516336	yellow	0	left	left	GLO	right	close	0	intact	none	none	0	0	0.750547	0	1	left	yellow	1	0	0
402	1	25	1	none	0.5	0.516252	blue	1	right	right	GLO	right	far	0	intact	none	none	0	0	0.767168	0	1	up	blue	1	0	0
402	1	26	1	none	0.5	0.516466	green	1	left	left	GLO	right	far	0	intact	none	none	0	0	1.17584	0	1	right	green	1	0	0
402	1	27	1	none	0.5	0.516009	green	1	down	down	GLO	left	far	0	intact	none	none	0	0	1.05107	0	1	right	green	1	0	0
402	1	28	1	none	0.5	0.516936	blue	1	right	right	GLO	right	far	0	intact	none	none	0	0	0.731278	0	1	up	blue	1	0	0
402	1	29	1	none	0.5	0.516438	red	0	down	down	GLO	right	far	0	intact	none	none	0	0	0.600486	0	1	down	red	1	0	0
402	1	30	1	none	0.5	0.516212	green	0	right	right	GLO	right	far	0	intact	none	none	0	0	2.08276	0	1	right	green	1	0	0
402	1	31	1	none	0.5	0.516916	green	1	down	down	GLO	right	close	0	intact	none	none	0	0	0.816866	0	1	right	green	1	0	0
402	1	32	1	none	0.5	0.516344	yellow	0	left	left	GLO	right	far	0	intact	none	none	0	0	0.635163	0	1	left	yellow	1	0	0
402	1	33	1	none	0.5	0.517434	blue	1	down	down	GLO	right	far	0	intact	none	none	0	0	0.717052	0	1	up	blue	1	0	0
402	1	34	1	none	0.5	0.516134	green	0	right	right	GLO	right	close	0	intact	none	none	0	0	0.767308	0	1	right	green	1	0	0
402	1	35	1	none	0.5	0.516065	green	1	down	down	GLO	left	far	0	intact	none	none	0	0	0.865018	0	1	right	green	1	0	0
402	1	36	1	none	0.5	0.516957	green	0	right	right	GLO	right	close	0	intact	none	none	0	0	0.532345	0	1	right	green	1	0	0
402	1	37	1	none	0.5	0.516833	red	0	down	down	GLO	left	close	0	intact	none	none	0	0	0.716979	0	1	down	red	1	0	0
402	1	38	1	none	0.5	0.515455	green	0	right	right	GLO	left	close	0	intact	none	none	0	0	0.664394	0	1	right	green	1	0	0
402	1	39	1	none	0.5	0.516937	red	0	down	down	GLO	left	far	0	intact	none	none	0	0	0.607931	0	1	down	red	1	0	0
402	1	40	1	none	0.5	0.5164	red	1	up	up	GLO	right	far	0	intact	none	none	0	0	0.680656	0	1	down	red	1	0	0
402	1	41	1	none	0.5	0.516099	green	1	left	left	GLO	right	close	0	intact	none	none	0	0	0.699793	0	1	right	green	1	0	0
402	1	42	1	none	0.5	0.516168	red	1	up	up	GLO	left	close	0	intact	none	none	0	0	0.633987	0	1	down	red	1	0	0
402	1	43	1	none	0.5	0.516572	red	1	left	left	GLO	left	close	0	intact	none	none	0	0	0.609728	0	1	down	red	1	0	0
402	1	44	1	none	0.5	0.516243	yellow	0	left	left	GLO	right	close	0	intact	none	none	0	0	0.617324	0	1	left	yellow	1	0	0
402	1	45	1	none	0.5	0.517561	green	1	left	left	GLO	right	far	0	intact	none	none	0	0	0.650143	0	1	right	green	1	0	0
402	1	46	1	none	0.5	0.517254	blue	0	up	up	GLO	right	far	0	intact	none	none	0	0	0.550773	0	1	up	blue	1	0	0
402	1	47	1	none	0.5	0.51665	green	0	right	right	GLO	right	close	0	intact	none	none	0	0	0.850235	0	1	right	green	1	0	0
402	1	48	1	none	0.5	0.517656	yellow	1	down	down	GLO	right	close	0	intact	none	none	0	0	0.699866	0	1	left	yellow	1	0	0
402	1	49	1	none	0.5	0.516701	green	1	left	left	GLO	left	close	0	intact	none	none	0	0	0.60053	0	1	right	green	1	0	0
402	1	50	1	none	0.5	0.516875	green	1	up	up	GLO	right	close	0	intact	none	none	0	0	0.683761	0	1	right	green	1	0	0
402	1	51	1	none	0.5	0.516236	yellow	1	up	up	GLO	left	close	0	intact	none	none	0	0	0.795163	0	1	left	yellow	1	0	0
402	1	52	1	none	0.5	0.516959	yellow	0	left	left	GLO	left	close	0	intact	none	none	0	0	0.527306	0	1	left	yellow	1	0	0
402	1	53	1	none	0.5	0.517016	blue	1	right	right	GLO	left	close	0	intact	none	none	0	0	1.34798	0	1	up	blue	1	0	0
402	1	54	1	none	0.5	0.516482	yellow	0	left	left	GLO	right	close	0	intact	none	none	0	0	0.566277	0	1	left	yellow	1	0	0
402	1	55	1	none	0.5	0.516895	blue	1	right	right	GLO	right	far	0	intact	none	none	0	0	0.69962	0	1	up	blue	1	0	0
402	1	56	1	none	0.5	0.517045	yellow	1	right	right	GLO	left	close	0	intact	none	none	0	0	0.750434	0	1	left	yellow	1	0	0
402	1	57	1	none	0.5	0.517199	yellow	1	down	down	GLO	left	far	0	intact	none	none	0	0	0.616536	0	1	left	yellow	1	0	0
402	1	58	1	none	1.5	1.51677	blue	1	right	right	GLO	left	far	0	intact	none	none	0	0	1.01743	0	1	up	blue	1	0	0
402	1	59	1	none	1.5	1.51719	blue	1	down	down	GLO	right	close	0	intact	none	none	0	0	0.627789	0	1	up	blue	1	0	0
402	1	60	1	none	1.5	1.51613	red	0	down	down	GLO	right	far	0	intact	none	none	0	0	0.917633	0	1	down	red	1	0	0
402	1	61	1	none	1.5	1.51627	red	0	down	down	GLO	left	far	0	intact	none	none	0	0	0.700536	0	1	down	red	1	0	0
402	1	62	1	none	1.5	1.51624	blue	0	up	up	GLO	left	far	0	intact	none	none	0	0	0.667468	0	1	up	blue	1	0	0
402	1	63	1	none	1.5	1.51686	red	0	down	down	GLO	left	far	0	intact	none	none	0	0	0.733722	0	1	down	red	1	0	0
402	1	64	1	none	1.5	1.5169	red	0	down	down	GLO	right	close	0	intact	none	none	0	0	0.71673	0	1	down	red	1	0	0
402	1	65	1	none	1.5	1.51775	yellow	0	left	left	GLO	right	far	0	intact	none	none	0	0	0.599578	0	1	left	yellow	1	0	0
402	1	66	1	none	1.5	1.51718	blue	1	down	down	GLO	left	close	0	intact	none	none	0	0	0.649762	0	1	up	blue	1	0	0
402	1	67	1	none	1.5	1.51688	yellow	0	left	left	GLO	right	close	0	intact	none	none	0	0	0.71336	0	1	left	yellow	1	0	0
402	1	68	1	none	1.5	1.51721	blue	0	up	up	GLO	right	far	0	intact	none	none	0	0	0.633665	0	1	up	blue	1	0	0
402	1	69	1	none	1.5	1.51683	blue	1	down	down	GLO	right	close	0	intact	none	none	0	0	0.633952	0	1	up	blue	1	0	0
402	1	70	1	none	1.5	1.51672	blue	1	right	right	GLO	right	far	0	intact	none	none	0	0	0.651057	0	1	up	blue	1	0	0
402	1	71	1	none	1.5	1.51569	blue	0	up	up	GLO	right	close	0	intact	none	none	0	0	0.433588	0	1	up	blue	1	0	0
402	1	72	1	none	1.5	1.51675	red	1	up	up	GLO	left	far	0	intact	none	none	0	0	0.657229	0	1	down	red	1	0	0
402	1	73	1	none	1.5	1.51713	green	0	right	right	GLO	left	close	0	intact	none	none	0	0	0.590689	0	1	right	green	1	0	0
402	1	74	1	none	1.5	1.51731	blue	1	right	right	GLO	left	far	0	intact	none	none	0	0	0.582605	0	1	up	blue	1	0	0
402	1	75	1	none	1.5	1.51729	red	1	up	up	GLO	left	close	0	intact	none	none	0	0	0.666927	0	1	down	red	1	0	0
402	1	76	1	none	1.5	1.51714	red	0	down	down	GLO	right	far	0	intact	none	none	0	0	0.483774	0	1	down	red	1	0	0
402	1	77	1	none	1.5	1.51673	green	1	down	down	GLO	left	far	0	intact	none	none	0	0	1.04665	0	1	right	green	1	0	0
402	1	78	1	none	1.5	1.51651	green	0	right	right	GLO	right	far	0	intact	none	none	0	0	0.516969	0	1	right	green	1	0	0
402	1	79	1	none	1.5	1.51656	yellow	0	left	left	GLO	right	far	0	intact	none	none	0	0	0.583811	0	1	left	yellow	1	0	0
402	1	80	1	none	1.5	1.51595	green	0	right	right	GLO	left	close	0	intact	none	none	0	0	0.666835	0	1	right	green	1	0	0
402	1	81	1	none	1.5	1.51715	blue	0	up	up	GLO	left	close	0	intact	none	none	0	0	0.549795	0	1	up	blue	1	0	0
402	1	82	1	none	1.5	1.51736	yellow	0	left	left	GLO	left	close	0	intact	none	none	0	0	0.699783	0	1	left	yellow	1	0	0
402	1	83	1	none	1.5	1.51747	red	0	down	down	GLO	left	close	0	intact	none	none	0	0	0.632913	0	1	down	red	1	0	0
402	1	84	1	none	1.5	1.51689	yellow	0	left	left	GLO	left	close	0	intact	none	none	0	0	0.783798	0	1	left	yellow	1	0	0
402	1	85	1	none	1.5	1.51669	yellow	1	down	down	GLO	left	far	0	intact	none	none	0	0	0.633874	0	1	left	yellow	1	0	0
402	1	86	1	none	1.5	1.51722	blue	0	up	up	GLO	left	far	0	intact	none	none	0	0	0.61607	0	1	up	blue	1	0	0
402	1	87	1	none	1.5	1.51636	red	1	up	up	GLO	left	close	0	intact	none	none	0	0	0.683147	0	1	down	red	1	0	0
402	1	88	1	none	1.5	1.51675	blue	1	right	right	GLO	left	close	0	intact	none	none	0	0	0.884225	0	1	up	blue	1	0	0
402	1	89	1	none	1.5	1.51621	green	0	right	right	GLO	right	far	0	intact	none	none	0	0	0.649948	0	1	right	green	1	0	0
402	1	90	1	none	1.5	1.51692	yellow	1	right	right	GLO	left	far	0	intact	none	none	0	0	0.650213	0	1	left	yellow	1	0	0
402	1	91	1	none	1.5	1.51654	blue	1	left	left	GLO	left	far	0	intact	none	none	0	0	0.783533	0	1	up	blue	1	0	0
402	1	92	1	none	1.5	1.5171	red	0	down	down	GLO	left	far	0	intact	none	none	0	0	0.643455	0	1	down	red	1	0	0
402	1	93	1	none	1.5	1.5165	blue	0	up	up	GLO	right	far	0	intact	none	none	0	0	0.493548	0	1	up	blue	1	0	0
402	1	94	1	none	1.5	1.51604	blue	0	up	up	GLO	left	far	0	intact	none	none	0	0	0.55053	0	1	up	blue	1	0	0
402	1	95	1	none	1.5	NaN	green	1	up	up	GLO	none	far	0	intact	none	none	0	0	NaN	NaN	NaN	none	none	NaN	0	0
402	1	96	1	none	1.5	NaN	blue	1	right	right	GLO	none	close	0	intact	none	none	0	0	NaN	NaN	NaN	none	none	NaN	0	0
402	1	97	1	none	1.5	NaN	blue	1	right	right	GLO	none	close	0	intact	none	none	0	0	NaN	NaN	NaN	none	none	NaN	0	0
402	1	98	1	none	1.5	NaN	red	1	up	up	GLO	none	close	0	intact	none	none	0	0	NaN	NaN	NaN	none	none	NaN	0	0
402	1	99	1	none	1.5	NaN	blue	1	down	down	GLO	none	far	0	intact	none	none	0	0	NaN	NaN	NaN	none	none	NaN	0	0
402	1	100	1	none	1.5	NaN	blue	1	down	down	GLO	none	close	0	intact	none	none	0	0	NaN	NaN	NaN	none	none	NaN	0	0
402	1	101	1	none	1.5	NaN	blue	0	up	up	GLO	none	far	0	intact	none	none	0	0	NaN	NaN	NaN	none	none	NaN	0	0
402	1	102	1	none	1.5	NaN	green	0	right	right	GLO	none	far	0	intact	none	none	0	0	NaN	NaN	NaN	none	none	NaN	0	0
402	1	103	1	none	1.5	NaN	blue	1	down	down	GLO	none	far	0	intact	none	none	0	0	NaN	NaN	NaN	none	none	NaN	0	0
402	1	104	1	none	1.5	NaN	yellow	0	left	left	GLO	none	far	0	intact	none	none	0	0	NaN	NaN	NaN	none	none	NaN	0	0
402	1	105	1	none	1.5	NaN	red	1	left	left	GLO	none	close	0	intact	none	none	0	0	NaN	NaN	NaN	none	none	NaN	0	0
402	1	106	1	none	1.5	NaN	yellow	0	left	left	GLO	none	close	0	intact	none	none	0	0	NaN	NaN	NaN	none	none	NaN	0	0
402	1	107	1	none	1.5	NaN	blue	1	down	down	GLO	none	close	0	intact	none	none	0	0	NaN	NaN	NaN	none	none	NaN	0	0
402	1	108	1	none	1.5	NaN	blue	0	up	up	GLO	none	close	0	intact	none	none	0	0	NaN	NaN	NaN	none	none	NaN	0	0
402	1	109	1	none	1.5	NaN	blue	1	right	right	GLO	none	far	0	intact	none	none	0	0	NaN	NaN	NaN	none	none	NaN	0	0
402	1	110	1	none	1.5	NaN	blue	0	up	up	GLO	none	far	0	intact	none	none	0	0	NaN	NaN	NaN	none	none	NaN	0	0
402	1	111	1	none	1.5	NaN	red	0	down	down	GLO	none	far	0	intact	none	none	0	0	NaN	NaN	NaN	none	none	NaN	0	0
402	1	112	1	none	1.5	NaN	red	0	down	down	GLO	none	far	0	intact	none	none	0	0	NaN	NaN	NaN	none	none	NaN	0	0
402	1	113	1	none	1.5	NaN	blue	0	up	up	GLO	none	far	0	intact	none	none	0	0	NaN	NaN	NaN	none	none	NaN	0	0
402	1	114	1	none	1.5	NaN	blue	1	down	down	GLO	none	far	0	intact	none	none	0	0	NaN	NaN	NaN	none	none	NaN	0	0
402	1	115	1	none	1.5	NaN	red	0	down	down	GLO	none	far	0	intact	none	none	0	0	NaN	NaN	NaN	none	none	NaN	0	0
402	1	116	1	none	1.5	NaN	red	0	down	down	GLO	none	close	0	intact	none	none	0	0	NaN	NaN	NaN	none	none	NaN	0	0
402	1	117	1	none	1.5	NaN	yellow	0	left	left	GLO	none	close	0	intact	none	none	0	0	NaN	NaN	NaN	none	none	NaN	0	0
402	1	118	1	none	1.5	NaN	red	0	down	down	GLO	none	far	0	intact	none	none	0	0	NaN	NaN	NaN	none	none	NaN	0	0
402	1	119	1	none	1.5	NaN	yellow	0	left	left	GLO	none	far	0	intact	none	none	0	0	NaN	NaN	NaN	none	none	NaN	0	0
402	1	120	1	none	1.5	NaN	blue	1	left	left	GLO	none	far	0	intact	none	none	0	0	NaN	NaN	NaN	none	none	NaN	0	0
402	1	121	1	none	1.5	NaN	green	1	up	up	GLO	none	far	0	intact	none	none	0	0	NaN	NaN	NaN	none	none	NaN	0	0
402	1	122	1	none	1.5	NaN	red	1	left	left	GLO	none	far	0	intact	none	none	0	0	NaN	NaN	NaN	none	none	NaN	0	0
402	1	123	1	none	1.5	NaN	yellow	1	right	right	GLO	none	far	0	intact	none	none	0	0	NaN	NaN	NaN	none	none	NaN	0	0
402	1	124	1	none	1.5	NaN	red	1	right	right	GLO	none	close	0	intact	none	none	0	0	NaN	NaN	NaN	none	none	NaN	0	0
402	1	125	1	none	1.5	NaN	red	1	right	right	GLO	none	close	0	intact	none	none	0	0	NaN	NaN	NaN	none	none	NaN	0	0
402	1	126	1	none	1.5	NaN	yellow	0	left	left	GLO	none	close	0	intact	none	none	0	0	NaN	NaN	NaN	none	none	NaN	0	0
402	1	127	1	none	1.5	NaN	blue	1	down	down	GLO	none	far	0	intact	none	none	0	0	NaN	NaN	NaN	none	none	NaN	0	0
402	1	128	1	none	1.5	NaN	yellow	1	right	right	GLO	none	far	0	intact	none	none	0	0	NaN	NaN	NaN	none	none	NaN	0	0
402	1	129	1	none	1.5	NaN	green	0	right	right	GLO	none	far	0	intact	none	none	0	0	NaN	NaN	NaN	none	none	NaN	0	0
402	1	130	1	none	1.5	NaN	green	1	up	up	GLO	none	far	0	intact	none	none	0	0	NaN	NaN	NaN	none	none	NaN	0	0
402	1	131	1	none	1.5	NaN	yellow	0	left	left	GLO	none	far	0	intact	none	none	0	0	NaN	NaN	NaN	none	none	NaN	0	0
402	1	132	1	none	1.5	NaN	blue	0	up	up	GLO	none	far	0	intact	none	none	0	0	NaN	NaN	NaN	none	none	NaN	0	0
402	1	133	1	none	1.5	NaN	red	1	left	left	GLO	none	far	0	intact	none	none	0	0	NaN	NaN	NaN	none	none	NaN	0	0
402	1	134	1	none	1.5	NaN	blue	1	right	right	GLO	none	close	0	intact	none	none	0	0	NaN	NaN	NaN	none	none	NaN	0	0
402	1	135	1	none	1.5	NaN	red	0	down	down	GLO	none	close	0	intact	none	none	0	0	NaN	NaN	NaN	none	none	NaN	0	0
402	1	136	1	none	1.5	NaN	red	1	up	up	GLO	none	close	0	intact	none	none	0	0	NaN	NaN	NaN	none	none	NaN	0	0
402	1	137	1	none	1.5	NaN	yellow	0	left	left	GLO	none	close	0	intact	none	none	0	0	NaN	NaN	NaN	none	none	NaN	0	0
402	1	138	1	none	1.5	NaN	blue	0	up	up	GLO	none	close	0	intact	none	none	0	0	NaN	NaN	NaN	none	none	NaN	0	0
402	1	139	1	none	1.5	NaN	green	1	up	up	GLO	none	far	0	intact	none	none	0	0	NaN	NaN	NaN	none	none	NaN	0	0
402	1	140	1	none	1.5	NaN	red	1	right	right	GLO	none	far	0	intact	none	none	0	0	NaN	NaN	NaN	none	none	NaN	0	0
402	1	141	1	none	1.5	NaN	blue	1	down	down	GLO	none	close	0	intact	none	none	0	0	NaN	NaN	NaN	none	none	NaN	0	0
402	1	142	1	none	1.5	NaN	blue	0	up	up	GLO	none	close	0	intact	none	none	0	0	NaN	NaN	NaN	none	none	NaN	0	0
402	1	143	1	none	1.5	NaN	yellow	1	up	up	GLO	none	close	0	intact	none	none	0	0	NaN	NaN	NaN	none	none	NaN	0	0
402	1	144	1	none	1.5	NaN	yellow	1	up	up	GLO	none	close	0	intact	none	none	0	0	NaN	NaN	NaN	none	none	NaN	0	0
402	1	145	1	none	1.5	NaN	red	1	up	up	GLO	none	far	0	intact	none	none	0	0	NaN	NaN	NaN	none	none	NaN	0	0
402	1	146	1	none	1.5	NaN	green	0	right	right	GLO	none	far	0	intact	none	none	0	0	NaN	NaN	NaN	none	none	NaN	0	0
402	1	147	1	none	1.5	NaN	green	0	right	right	GLO	none	far	0	intact	none	none	0	0	NaN	NaN	NaN	none	none	NaN	0	0
402	1	148	1	none	1.5	NaN	green	0	right	right	GLO	none	close	0	intact	none	none	0	0	NaN	NaN	NaN	none	none	NaN	0	0
402	1	149	1	none	1.5	NaN	blue	1	down	down	GLO	none	close	0	intact	none	none	0	0	NaN	NaN	NaN	none	none	NaN	0	0
402	1	150	1	none	1.5	NaN	yellow	0	left	left	GLO	none	close	0	intact	none	none	0	0	NaN	NaN	NaN	none	none	NaN	0	0
402	1	151	1	none	1.5	NaN	yellow	0	left	left	GLO	none	close	0	intact	none	none	0	0	NaN	NaN	NaN	none	none	NaN	0	0
402	1	152	1	none	1.5	NaN	blue	1	left	left	GLO	none	far	0	intact	none	none	0	0	NaN	NaN	NaN	none	none	NaN	0	0
402	1	153	1	none	1.5	NaN	yellow	0	left	left	GLO	none	far	0	intact	none	none	0	0	NaN	NaN	NaN	none	none	NaN	0	0
402	1	154	1	none	1.5	NaN	yellow	1	right	right	GLO	none	far	0	intact	none	none	0	0	NaN	NaN	NaN	none	none	NaN	0	0
402	1	155	1	none	1.5	NaN	green	1	down	down	GLO	none	far	0	intact	none	none	0	0	NaN	NaN	NaN	none	none	NaN	0	0
402	1	156	1	none	1.5	NaN	red	0	down	down	GLO	none	far	0	intact	none	none	0	0	NaN	NaN	NaN	none	none	NaN	0	0
402	1	157	1	none	1.5	NaN	blue	0	up	up	GLO	none	close	0	intact	none	none	0	0	NaN	NaN	NaN	none	none	NaN	0	0
402	1	158	1	none	1.5	NaN	red	0	down	down	GLO	none	far	0	intact	none	none	0	0	NaN	NaN	NaN	none	none	NaN	0	0
402	1	159	1	none	1.5	NaN	green	1	left	left	GLO	none	far	0	intact	none	none	0	0	NaN	NaN	NaN	none	none	NaN	0	0
402	1	160	1	none	1.5	NaN	blue	1	right	right	GLO	none	far	0	intact	none	none	0	0	NaN	NaN	NaN	none	none	NaN	0	0
402	1	161	1	none	1.5	NaN	red	0	down	down	GLO	none	far	0	intact	none	none	0	0	NaN	NaN	NaN	none	none	NaN	0	0
402	1	162	1	none	1.5	NaN	yellow	0	left	left	GLO	none	close	0	intact	none	none	0	0	NaN	NaN	NaN	none	none	NaN	0	0
402	1	163	1	none	1.5	NaN	yellow	1	down	down	GLO	none	close	0	intact	none	none	0	0	NaN	NaN	NaN	none	none	NaN	0	0
402	1	164	1	none	1.5	NaN	red	1	right	right	GLO	none	far	0	intact	none	none	0	0	NaN	NaN	NaN	none	none	NaN	0	0
402	1	165	1	none	1.5	NaN	green	1	up	up	GLO	none	close	0	intact	none	none	0	0	NaN	NaN	NaN	none	none	NaN	0	0
402	1	166	1	none	1.5	NaN	yellow	0	left	left	GLO	none	close	0	intact	none	none	0	0	NaN	NaN	NaN	none	none	NaN	0	0
402	1	167	1	none	1.5	NaN	green	0	right	right	GLO	none	close	0	intact	none	none	0	0	NaN	NaN	NaN	none	none	NaN	0	0
402	1	168	1	none	1.5	NaN	red	0	down	down	GLO	none	close	0	intact	none	none	0	0	NaN	NaN	NaN	none	none	NaN	0	0
402	1	169	1	none	1.5	NaN	red	0	down	down	GLO	none	far	0	intact	none	none	0	0	NaN	NaN	NaN	none	none	NaN	0	0
402	1	170	1	none	1.5	NaN	red	1	left	left	GLO	none	far	0	intact	none	none	0	0	NaN	NaN	NaN	none	none	NaN	0	0
402	1	171	1	none	1.5	NaN	yellow	0	left	left	GLO	none	far	0	intact	none	none	0	0	NaN	NaN	NaN	none	none	NaN	0	0
402	1	172	1	none	1.5	NaN	blue	0	up	up	GLO	none	close	0	intact	none	none	0	0	NaN	NaN	NaN	none	none	NaN	0	0
402	1	173	1	none	1.5	NaN	green	0	right	right	GLO	none	close	0	intact	none	none	0	0	NaN	NaN	NaN	none	none	NaN	0	0
402	1	174	1	none	1.5	NaN	red	0	down	down	GLO	none	far	0	intact	none	none	0	0	NaN	NaN	NaN	none	none	NaN	0	0
402	1	175	1	none	1.5	NaN	green	1	left	left	GLO	none	far	0	intact	none	none	0	0	NaN	NaN	NaN	none	none	NaN	0	0
402	1	176	1	none	1.5	NaN	yellow	1	right	right	GLO	none	far	0	intact	none	none	0	0	NaN	NaN	NaN	none	none	NaN	0	0
402	1	177	1	none	1.5	NaN	blue	1	right	right	GLO	none	close	0	intact	none	none	0	0	NaN	NaN	NaN	none	none	NaN	0	0
402	1	178	1	none	1.5	NaN	green	1	left	left	GLO	none	far	0	intact	none	none	0	0	NaN	NaN	NaN	none	none	NaN	0	0
402	1	179	1	none	1.5	NaN	yellow	1	down	down	GLO	none	close	0	intact	none	none	0	0	NaN	NaN	NaN	none	none	NaN	0	0
402	1	180	1	none	1.5	NaN	red	1	up	up	GLO	none	close	0	intact	none	none	0	0	NaN	NaN	NaN	none	none	NaN	0	0
402	1	181	1	none	1.5	NaN	green	0	right	right	GLO	none	close	0	intact	none	none	0	0	NaN	NaN	NaN	none	none	NaN	0	0
402	1	182	1	none	1.5	NaN	blue	1	left	left	GLO	none	close	0	intact	none	none	0	0	NaN	NaN	NaN	none	none	NaN	0	0
402	1	183	1	none	1.5	NaN	red	1	up	up	GLO	none	close	0	intact	none	none	0	0	NaN	NaN	NaN	none	none	NaN	0	0
402	1	184	1	none	1.5	NaN	red	0	down	down	GLO	none	far	0	intact	none	none	0	0	NaN	NaN	NaN	none	none	NaN	0	0
402	1	185	1	none	1.5	NaN	red	0	down	down	GLO	none	far	0	intact	none	none	0	0	NaN	NaN	NaN	none	none	NaN	0	0
402	1	186	1	none	1.5	NaN	green	0	right	right	GLO	none	far	0	intact	none	none	0	0	NaN	NaN	NaN	none	none	NaN	0	0
402	1	187	1	none	1.5	NaN	yellow	1	right	right	GLO	none	far	0	intact	none	none	0	0	NaN	NaN	NaN	none	none	NaN	0	0
402	1	188	1	none	1.5	NaN	yellow	0	left	left	GLO	none	far	0	intact	none	none	0	0	NaN	NaN	NaN	none	none	NaN	0	0
402	1	189	1	none	1.5	NaN	red	0	down	down	GLO	none	close	0	intact	none	none	0	0	NaN	NaN	NaN	none	none	NaN	0	0
402	1	190	1	none	1.5	NaN	green	0	right	right	GLO	none	far	0	intact	none	none	0	0	NaN	NaN	NaN	none	none	NaN	0	0
402	1	191	1	none	1.5	NaN	yellow	1	up	up	GLO	none	far	0	intact	none	none	0	0	NaN	NaN	NaN	none	none	NaN	0	0
402	1	192	1	none	1.5	NaN	green	1	down	down	GLO	none	close	0	intact	none	none	0	0	NaN	NaN	NaN	none	none	NaN	0	0
402	1	193	1	none	1.5	NaN	blue	1	right	right	GLO	none	close	0	intact	none	none	0	0	NaN	NaN	NaN	none	none	NaN	0	0
402	1	194	1	none	1.5	NaN	yellow	1	right	right	GLO	none	close	0	intact	none	none	0	0	NaN	NaN	NaN	none	none	NaN	0	0
402	1	195	1	none	1.5	NaN	blue	1	down	down	GLO	none	far	0	intact	none	none	0	0	NaN	NaN	NaN	none	none	NaN	0	0
402	1	196	1	none	1.5	NaN	red	0	down	down	GLO	none	close	0	intact	none	none	0	0	NaN	NaN	NaN	none	none	NaN	0	0
402	1	197	1	none	1.5	NaN	yellow	0	left	left	GLO	none	far	0	intact	none	none	0	0	NaN	NaN	NaN	none	none	NaN	0	0
402	1	198	1	none	1.5	NaN	red	0	down	down	GLO	none	close	0	intact	none	none	0	0	NaN	NaN	NaN	none	none	NaN	0	0
402	1	199	1	none	1.5	NaN	yellow	0	left	left	GLO	none	close	0	intact	none	none	0	0	NaN	NaN	NaN	none	none	NaN	0	0
402	1	200	1	none	1.5	NaN	yellow	0	left	left	GLO	none	far	0	intact	none	none	0	0	NaN	NaN	NaN	none	none	NaN	0	0
402	1	201	1	none	1.5	NaN	green	1	down	down	GLO	none	close	0	intact	none	none	0	0	NaN	NaN	NaN	none	none	NaN	0	0
402	1	202	1	none	1.5	NaN	yellow	0	left	left	GLO	none	close	0	intact	none	none	0	0	NaN	NaN	NaN	none	none	NaN	0	0
402	1	203	1	none	1.5	NaN	blue	0	up	up	GLO	none	close	0	intact	none	none	0	0	NaN	NaN	NaN	none	none	NaN	0	0
402	1	204	1	none	1.5	NaN	green	1	up	up	GLO	none	far	0	intact	none	none	0	0	NaN	NaN	NaN	none	none	NaN	0	0
402	1	205	1	none	1.5	NaN	blue	0	up	up	GLO	none	close	0	intact	none	none	0	0	NaN	NaN	NaN	none	none	NaN	0	0
402	1	206	1	none	1.5	NaN	green	1	down	down	GLO	none	close	0	intact	none	none	0	0	NaN	NaN	NaN	none	none	NaN	0	0
402	1	207	1	none	1.5	NaN	red	1	left	left	GLO	none	close	0	intact	none	none	0	0	NaN	NaN	NaN	none	none	NaN	0	0
402	1	208	1	none	1.5	NaN	green	0	right	right	GLO	none	far	0	intact	none	none	0	0	NaN	NaN	NaN	none	none	NaN	0	0
402	1	209	1	none	1.5	NaN	green	1	up	up	GLO	none	close	0	intact	none	none	0	0	NaN	NaN	NaN	none	none	NaN	0	0
402	1	210	1	none	1.5	NaN	yellow	0	left	left	GLO	none	far	0	intact	none	none	0	0	NaN	NaN	NaN	none	none	NaN	0	0
402	1	211	1	none	1.5	NaN	red	0	down	down	GLO	none	close	0	intact	none	none	0	0	NaN	NaN	NaN	none	none	NaN	0	0
402	1	212	1	none	1.5	NaN	green	0	right	right	GLO	none	close	0	intact	none	none	0	0	NaN	NaN	NaN	none	none	NaN	0	0
402	1	213	1	none	1.5	NaN	blue	1	down	down	GLO	none	far	0	intact	none	none	0	0	NaN	NaN	NaN	none	none	NaN	0	0
402	1	214	1	none	1.5	NaN	yellow	0	left	left	GLO	none	close	0	intact	none	none	0	0	NaN	NaN	NaN	none	none	NaN	0	0
402	1	215	1	none	1.5	NaN	green	0	right	right	GLO	none	far	0	intact	none	none	0	0	NaN	NaN	NaN	none	none	NaN	0	0
402	1	216	1	none	1.5	NaN	yellow	1	down	down	GLO	none	far	0	intact	none	none	0	0	NaN	NaN	NaN	none	none	NaN	0	0
402	1	217	1	none	1.5	NaN	blue	0	up	up	GLO	none	close	0	intact	none	none	0	0	NaN	NaN	NaN	none	none	NaN	0	0
402	1	218	1	none	1.5	NaN	green	0	right	right	GLO	none	close	0	intact	none	none	0	0	NaN	NaN	NaN	none	none	NaN	0	0
402	1	219	1	none	1.5	NaN	yellow	1	right	right	GLO	none	close	0	intact	none	none	0	0	NaN	NaN	NaN	none	none	NaN	0	0
402	1	220	1	none	1.5	NaN	blue	0	up	up	GLO	none	far	0	intact	none	none	0	0	NaN	NaN	NaN	none	none	NaN	0	0
402	1	221	1	none	1.5	NaN	yellow	0	left	left	GLO	none	close	0	intact	none	none	0	0	NaN	NaN	NaN	none	none	NaN	0	0
402	1	222	1	none	1.5	NaN	blue	1	down	down	GLO	none	far	0	intact	none	none	0	0	NaN	NaN	NaN	none	none	NaN	0	0
402	1	223	1	none	1.5	NaN	red	1	left	left	GLO	none	far	0	intact	none	none	0	0	NaN	NaN	NaN	none	none	NaN	0	0
402	1	224	1	none	1.5	NaN	green	1	left	left	GLO	none	close	0	intact	none	none	0	0	NaN	NaN	NaN	none	none	NaN	0	0
402	1	225	1	none	1.5	NaN	yellow	1	up	up	GLO	none	close	0	intact	none	none	0	0	NaN	NaN	NaN	none	none	NaN	0	0
402	1	226	1	none	1.5	NaN	green	0	right	right	GLO	none	far	0	intact	none	none	0	0	NaN	NaN	NaN	none	none	NaN	0	0
402	1	227	1	none	1.5	NaN	red	1	left	left	GLO	none	close	0	intact	none	none	0	0	NaN	NaN	NaN	none	none	NaN	0	0
402	1	228	1	none	1.5	NaN	green	0	right	right	GLO	none	close	0	intact	none	none	0	0	NaN	NaN	NaN	none	none	NaN	0	0
402	1	229	1	none	1.5	NaN	red	0	down	down	GLO	none	far	0	intact	none	none	0	0	NaN	NaN	NaN	none	none	NaN	0	0
402	1	230	1	none	1.5	NaN	green	0	right	right	GLO	none	far	0	intact	none	none	0	0	NaN	NaN	NaN	none	none	NaN	0	0
402	1	231	1	none	1.5	NaN	blue	0	up	up	GLO	none	far	0	intact	none	none	0	0	NaN	NaN	NaN	none	none	NaN	0	0
402	1	232	1	none	1.5	NaN	yellow	1	up	up	GLO	none	far	0	intact	none	none	0	0	NaN	NaN	NaN	none	none	NaN	0	0
402	1	233	1	none	1.5	NaN	blue	1	right	right	GLO	none	far	0	intact	none	none	0	0	NaN	NaN	NaN	none	none	NaN	0	0
402	1	234	1	none	1.5	NaN	red	0	down	down	GLO	none	close	0	intact	none	none	0	0	NaN	NaN	NaN	none	none	NaN	0	0
402	1	235	1	none	1.5	NaN	yellow	0	left	left	GLO	none	far	0	intact	none	none	0	0	NaN	NaN	NaN	none	none	NaN	0	0
402	1	236	1	none	1.5	NaN	blue	0	up	up	GLO	none	far	0	intact	none	none	0	0	NaN	NaN	NaN	none	none	NaN	0	0
402	1	237	1	none	1.5	NaN	blue	0	up	up	GLO	none	close	0	intact	none	none	0	0	NaN	NaN	NaN	none	none	NaN	0	0
402	1	238	1	none	1.5	NaN	blue	0	up	up	GLO	none	close	0	intact	none	none	0	0	NaN	NaN	NaN	none	none	NaN	0	0
402	1	239	1	none	1.5	NaN	green	0	right	right	GLO	none	close	0	intact	none	none	0	0	NaN	NaN	NaN	none	none	NaN	0	0
402	1	240	1	none	1.5	NaN	green	1	left	left	GLO	none	close	0	intact	none	none	0	0	NaN	NaN	NaN	none	none	NaN	0	0
402	1	241	1	none	1.5	NaN	green	1	left	left	GLO	none	far	0	intact	none	none	0	0	NaN	NaN	NaN	none	none	NaN	0	0
402	1	242	1	none	1.5	NaN	yellow	1	right	right	GLO	none	far	0	intact	none	none	0	0	NaN	NaN	NaN	none	none	NaN	0	0
402	1	243	1	none	1.5	NaN	yellow	0	left	left	GLO	none	close	0	intact	none	none	0	0	NaN	NaN	NaN	none	none	NaN	0	0
402	1	244	1	none	1.5	NaN	green	1	left	left	GLO	none	far	0	intact	none	none	0	0	NaN	NaN	NaN	none	none	NaN	0	0
402	1	245	1	none	1.5	NaN	green	0	right	right	GLO	none	far	0	intact	none	none	0	0	NaN	NaN	NaN	none	none	NaN	0	0
402	1	246	1	none	1.5	NaN	red	1	left	left	GLO	none	far	0	intact	none	none	0	0	NaN	NaN	NaN	none	none	NaN	0	0
402	1	247	1	none	1.5	NaN	blue	0	up	up	GLO	none	far	0	intact	none	none	0	0	NaN	NaN	NaN	none	none	NaN	0	0
402	1	248	1	none	1.5	NaN	green	0	right	right	GLO	none	close	0	intact	none	none	0	0	NaN	NaN	NaN	none	none	NaN	0	0
402	1	249	1	none	1.5	NaN	red	0	down	down	GLO	none	far	0	intact	none	none	0	0	NaN	NaN	NaN	none	none	NaN	0	0
402	1	250	1	none	1.5	NaN	yellow	0	left	left	GLO	none	far	0	intact	none	none	0	0	NaN	NaN	NaN	none	none	NaN	0	0
402	1	251	1	none	1.5	NaN	red	1	left	left	GLO	none	close	0	intact	none	none	0	0	NaN	NaN	NaN	none	none	NaN	0	0
402	1	252	1	none	1.5	NaN	red	0	down	down	GLO	none	close	0	intact	none	none	0	0	NaN	NaN	NaN	none	none	NaN	0	0
402	1	253	1	none	1.5	NaN	yellow	0	left	left	GLO	none	far	0	intact	none	none	0	0	NaN	NaN	NaN	none	none	NaN	0	0
402	1	254	1	none	1.5	NaN	blue	1	left	left	GLO	none	far	0	intact	none	none	0	0	NaN	NaN	NaN	none	none	NaN	0	0
402	1	255	1	none	1.5	NaN	yellow	0	left	left	GLO	none	close	0	intact	none	none	0	0	NaN	NaN	NaN	none	none	NaN	0	0
402	1	256	1	none	1.5	NaN	yellow	1	down	down	GLO	none	close	0	intact	none	none	0	0	NaN	NaN	NaN	none	none	NaN	0	0
402	1	257	1	none	1.5	NaN	green	0	right	right	GLO	none	close	0	intact	none	none	0	0	NaN	NaN	NaN	none	none	NaN	0	0
402	1	258	1	none	1.5	NaN	blue	1	right	right	GLO	none	far	0	intact	none	none	0	0	NaN	NaN	NaN	none	none	NaN	0	0
402	1	259	1	none	1.5	NaN	blue	1	right	right	GLO	none	close	0	intact	none	none	0	0	NaN	NaN	NaN	none	none	NaN	0	0
402	1	260	1	none	1.5	NaN	yellow	0	left	left	GLO	none	close	0	intact	none	none	0	0	NaN	NaN	NaN	none	none	NaN	0	0
402	1	261	1	none	1.5	NaN	yellow	1	up	up	GLO	none	close	0	intact	none	none	0	0	NaN	NaN	NaN	none	none	NaN	0	0
402	1	262	1	none	1.5	NaN	blue	1	left	left	GLO	none	far	0	intact	none	none	0	0	NaN	NaN	NaN	none	none	NaN	0	0
402	1	263	1	none	1.5	NaN	green	0	right	right	GLO	none	far	0	intact	none	none	0	0	NaN	NaN	NaN	none	none	NaN	0	0
402	1	264	1	none	1.5	NaN	green	1	down	down	GLO	none	close	0	intact	none	none	0	0	NaN	NaN	NaN	none	none	NaN	0	0
402	1	265	1	none	1.5	NaN	blue	1	down	down	GLO	none	far	0	intact	none	none	0	0	NaN	NaN	NaN	none	none	NaN	0	0
402	1	266	1	none	1.5	NaN	green	0	right	right	GLO	none	close	0	intact	none	none	0	0	NaN	NaN	NaN	none	none	NaN	0	0
402	1	267	1	none	1.5	NaN	blue	1	left	left	GLO	none	close	0	intact	none	none	0	0	NaN	NaN	NaN	none	none	NaN	0	0
402	1	268	1	none	1.5	NaN	yellow	0	left	left	GLO	none	close	0	intact	none	none	0	0	NaN	NaN	NaN	none	none	NaN	0	0
402	1	269	1	none	1.5	NaN	blue	1	down	down	GLO	none	close	0	intact	none	none	0	0	NaN	NaN	NaN	none	none	NaN	0	0
402	1	270	1	none	1.5	NaN	blue	0	up	up	GLO	none	close	0	intact	none	none	0	0	NaN	NaN	NaN	none	none	NaN	0	0
402	1	271	1	none	1.5	NaN	blue	1	down	down	GLO	none	far	0	intact	none	none	0	0	NaN	NaN	NaN	none	none	NaN	0	0
402	1	272	1	none	1.5	NaN	blue	1	right	right	GLO	none	close	0	intact	none	none	0	0	NaN	NaN	NaN	none	none	NaN	0	0
402	1	273	1	none	1.5	NaN	red	1	up	up	GLO	none	far	0	intact	none	none	0	0	NaN	NaN	NaN	none	none	NaN	0	0
402	1	274	1	none	1.5	NaN	yellow	0	left	left	GLO	none	far	0	intact	none	none	0	0	NaN	NaN	NaN	none	none	NaN	0	0
402	1	275	1	none	1.5	NaN	yellow	0	left	left	GLO	none	close	0	intact	none	none	0	0	NaN	NaN	NaN	none	none	NaN	0	0
402	1	276	1	none	1.5	NaN	yellow	1	down	down	GLO	none	close	0	intact	none	none	0	0	NaN	NaN	NaN	none	none	NaN	0	0
402	1	277	1	none	1.5	NaN	yellow	0	left	left	GLO	none	far	0	intact	none	none	0	0	NaN	NaN	NaN	none	none	NaN	0	0
402	2	1	1	auto	0.5	0.516506	yellow	0	left	left	GLO	right	close	1	intact	intact	6d873e1d-8ad7-4688-a181-c3322982e4a6_fps_avg_aud.mp4	1	26	0.947035	0.137622	1	left	yellow	1	0	0
402	2	2	1	auto	0.5	0.515761	green	0	right	right	GLO	right	far	0	intact	none	none	0	0	0.697535	0	1	right	green	1	0	0
402	2	3	1	auto	0.5	0.516835	green	0	right	right	GLO	right	close	1	intact	intact	Nov30_fps_avg_aud.mp4	1	13	0.553929	0.0279745	3	right	green	1	0	0
402	2	4	1	auto	0.5	0.517027	yellow	1	up	up	GLO	right	close	1	intact	intact	cabd6947-9e88-4e9a-90fa-985b610f3784_fps_avg_aud.mp4	1	0	0.810689	0	1	left	yellow	1	0	0
402	2	5	1	auto	0.5	0.51682	yellow	1	down	down	GLO	right	far	0	intact	none	none	0	0	0.680667	0	1	left	yellow	1	0	0
402	2	6	1	auto	0.5	0.516376	blue	1	down	down	GLO	right	close	1	intact	intact	34cddff1-7a1a-4e71-be66-8a745a1d42f4_fps_avg_aud.mp4	1	24	0.627439	0.0843106	1	up	blue	1	0	0
402	2	7	1	auto	0.5	0.516598	green	1	down	down	GLO	left	close	1	intact	intact	f86e1967-f74c-492a-93b0-8eac09649762_fps_avg_aud.mp4	1	0	0.882384	0	1	right	green	1	0	0
402	2	8	1	auto	0.5	0.515848	blue	0	up	up	GLO	right	close	1	intact	intact	ede4a096-21dc-4ed4-9b28-6df0a7f6fe6b_fps_avg_aud.mp4	1	0	0.73368	0	1	up	blue	1	0	0
402	2	9	1	auto	0.5	0.51645	red	1	right	right	GLO	right	close	0	intact	none	none	0	0	0.800338	0	1	down	red	1	0	0
402	2	10	1	auto	0.5	0.516391	red	1	up	up	GLO	right	far	0	intact	none	none	0	0	0.596733	0	1	down	red	1	0	0
402	2	11	1	auto	0.5	0.516318	yellow	1	right	right	GLO	right	far	1	intact	intact	December_2015_(2)_fps_avg_aud.mp4	1	0	0.783719	0	1	left	yellow	1	0	0
402	2	12	1	auto	0.5	0.516793	yellow	1	up	up	GLO	left	close	1	intact	intact	Apr16_fps_avg_aud.mp4	1	0	0.733095	0	1	left	yellow	1	0	0
402	2	13	1	auto	0.5	0.515683	red	0	down	down	GLO	left	far	1	intact	intact	Jun1_fps_avg_aud.mp4	1	0	0.742716	0	1	down	red	1	0	0
402	2	14	1	auto	0.5	0.516486	yellow	1	down	down	GLO	right	close	0	intact	none	none	0	0	1.14533	0	1	left	yellow	1	0	0
402	2	15	1	auto	0.5	0.516453	blue	0	up	up	GLO	left	close	1	intact	intact	b55ab065-b20b-4b90-b1fd-ca55d667b668_fps_avg_aud.mp4	1	0	0.641347	0	1	up	blue	1	0	0
402	2	16	1	auto	0.5	0.517206	green	1	down	down	GLO	left	far	0	intact	none	none	0	0	1.36637	0	1	right	green	1	0	0
402	2	17	1	auto	0.5	0.516336	blue	0	up	up	GLO	right	close	1	intact	intact	Jun19_fps_avg_aud.mp4	1	0	0.600735	0	1	up	blue	1	0	0
402	2	18	1	auto	0.5	0.517297	green	0	right	right	GLO	left	close	0	intact	none	none	0	0	1.3131	0	1	right	green	1	0	0
402	2	19	1	auto	0.5	0.51608	green	0	right	right	GLO	left	far	1	intact	intact	73d0e54a-1b4c-4f00-a562-b71360349bdf_fps_avg_aud.mp4	1	25	0.580983	0.100267	2	right	green	1	0	0
402	2	20	1	auto	0.5	0.517263	green	1	left	left	GLO	left	close	0	intact	none	none	0	0	0.707189	0	1	left	yellow	0	0	0
402	2	21	1	auto	1.5	1.51706	yellow	1	right	right	GLO	left	close	0	intact	none	none	0	0	0.808565	0	1	left	yellow	1	0	0
402	2	22	1	auto	1.5	1.51633	green	0	right	right	GLO	right	close	1	intact	intact	September_2016_(2)_fps_avg_aud.mp4	1	22	0.817358	0.100039	2	right	green	1	0	0
402	2	23	1	auto	1.5	1.51577	green	1	up	up	GLO	left	close	1	intact	intact	cef9c179-f64d-4543-875f-6808da2329b6_fps_avg_aud.mp4	1	0	0.642615	0	1	right	green	1	0	0
402	2	24	1	auto	1.5	1.517	green	1	down	down	GLO	left	close	1	intact	intact	e83d47c2-3289-4bb3-810c-afface120ccd_fps_avg_aud.mp4	1	0	0.642749	0	1	right	green	1	0	0
402	2	25	1	auto	1.5	1.5165	green	1	left	left	GLO	left	far	1	intact	intact	f252571c-093b-4ade-9187-cd198d1e3eb0_fps_avg_aud.mp4	1	0	0.643959	0	1	right	green	1	0	0
402	2	26	1	auto	1.5	1.51622	yellow	0	left	left	GLO	left	close	1	intact	intact	e00791ee-f5a4-4315-8214-e183c3e1d2cf_fps_avg_aud.mp4	1	0	0.552321	0	1	left	yellow	1	0	0
402	2	27	1	auto	1.5	1.51693	yellow	1	right	right	GLO	left	far	0	intact	none	none	0	0	0.709585	0	1	left	yellow	1	0	0
402	2	28	1	auto	1.5	1.51724	green	1	down	down	GLO	left	close	1	intact	intact	e6c6cdbe-2a63-4eeb-b544-6fc0a25dc157_fps_avg_aud.mp4	1	0	0.87947	0	1	right	green	1	0	0
402	2	29	1	auto	1.5	1.51586	red	1	right	right	GLO	right	close	1	intact	intact	5f534c39-dfe8-4a8d-a678-c406bcf9154d_fps_avg_aud.mp4	1	48	1.0869	0.207777	2	down	red	1	0	0
402	2	30	1	auto	1.5	1.51698	blue	0	up	up	GLO	left	close	1	intact	intact	Apr30_fps_avg_aud.mp4	1	0	0.738929	0	1	up	blue	1	0	0
402	2	31	1	auto	1.5	1.51714	blue	1	left	left	GLO	right	close	0	intact	none	none	0	0	0.698902	0	1	up	blue	1	0	0
402	2	32	1	auto	1.5	1.51667	yellow	0	left	left	GLO	right	close	0	intact	none	none	0	0	0.98267	0	1	left	yellow	1	0	0
402	2	33	1	auto	1.5	NaN	yellow	1	down	down	GLO	none	close	1	intact	intact	61be81ef-2338-498f-a09a-fd23aea0f3ec_fps_avg_aud.mp4	0	0	NaN	NaN	NaN	none	none	NaN	0	0
402	2	34	1	auto	1.5	NaN	red	0	down	down	GLO	none	close	1	intact	intact	f08bb9b7-0409-482c-9084-de15481ab2b3_fps_avg_aud.mp4	0	0	NaN	NaN	NaN	none	none	NaN	0	0
402	2	35	1	auto	1.5	NaN	green	0	right	right	GLO	none	far	1	intact	intact	326ee18c-0cd5-4c39-ac0f-082f53449aa4_fps_avg_aud.mp4	0	0	NaN	NaN	NaN	none	none	NaN	0	0
402	2	36	1	auto	1.5	NaN	red	1	right	right	GLO	none	close	1	intact	intact	838aaec1-d86d-4006-a165-4cb3e5f6444b_fps_avg_aud.mp4	0	0	NaN	NaN	NaN	none	none	NaN	0	0
402	2	37	1	auto	1.5	NaN	yellow	1	down	down	GLO	none	close	1	intact	intact	8c9efcf8-40ef-4975-90f5-9d2449140a05_fps_avg_aud.mp4	0	0	NaN	NaN	NaN	none	none	NaN	0	0
402	2	38	1	auto	1.5	NaN	red	0	down	down	GLO	none	far	1	intact	intact	May18_fps_avg_aud.mp4	0	0	NaN	NaN	NaN	none	none	NaN	0	0
402	2	39	1	auto	1.5	NaN	red	0	down	down	GLO	none	close	1	intact	intact	June_17_2015_fps_avg_aud.mp4	0	0	NaN	NaN	NaN	none	none	NaN	0	0
402	2	40	1	auto	1.5	NaN	yellow	0	left	left	GLO	none	close	1	intact	intact	2ee32cdc-eb1b-4b14-b0d7-fb25b7ed46e3_fps_avg_aud.mp4	0	0	NaN	NaN	NaN	none	none	NaN	0	0
402	2	41	1	auto	1.5	NaN	yellow	0	left	left	GLO	none	far	1	intact	intact	359d82dd-3d4c-4029-a89b-66422745c056_fps_avg_aud.mp4	0	0	NaN	NaN	NaN	none	none	NaN	0	0
402	2	42	1	auto	1.5	NaN	green	0	right	right	GLO	none	close	1	intact	intact	Nov7_fps_avg_aud.mp4	0	0	NaN	NaN	NaN	none	none	NaN	0	0
402	2	43	1	auto	1.5	NaN	yellow	0	left	left	GLO	none	far	0	intact	none	none	0	0	NaN	NaN	NaN	none	none	NaN	0	0
402	2	44	1	auto	1.5	NaN	green	1	down	down	GLO	none	far	1	intact	intact	bbadcc83-10bb-4a2d-a28a-1d6b44f33770_fps_avg_aud.mp4	0	0	NaN	NaN	NaN	none	none	NaN	0	0
402	2	45	1	auto	1.5	NaN	blue	0	up	up	GLO	none	far	1	intact	intact	75c41469-2e99-4ed0-b25f-04259686f11b_fps_avg_aud.mp4	0	0	NaN	NaN	NaN	none	none	NaN	0	0
402	2	46	1	auto	1.5	NaN	green	1	down	down	GLO	none	far	1	intact	intact	december_2015_(4)_fps_avg_aud.mp4	0	0	NaN	NaN	NaN	none	none	NaN	0	0
402	2	47	1	auto	1.5	NaN	red	1	left	left	GLO	none	far	0	intact	none	none	0	0	NaN	NaN	NaN	none	none	NaN	0	0
402	2	48	1	auto	1.5	NaN	yellow	0	left	left	GLO	none	close	1	intact	intact	7cff1761-7eb4-4352-9fd6-437bff370f37_fps_avg_aud.mp4	0	0	NaN	NaN	NaN	none	none	NaN	0	0
402	2	49	1	auto	1.5	NaN	red	0	down	down	GLO	none	far	1	intact	intact	cc1b0f3f-4b74-4315-bb6b-f6c5624cbee1(1)_fps_avg_aud.mp4	0	0	NaN	NaN	NaN	none	none	NaN	0	0
402	2	50	1	auto	1.5	NaN	red	0	down	down	GLO	none	far	1	intact	intact	240bdf76-9a30-49ea-9534-079281412955_fps_avg_aud.mp4	0	0	NaN	NaN	NaN	none	none	NaN	0	0
402	2	51	1	auto	1.5	NaN	red	0	down	down	GLO	none	close	1	intact	intact	October_14_2016_fps_avg_aud.mp4	0	0	NaN	NaN	NaN	none	none	NaN	0	0
402	2	52	1	auto	1.5	NaN	yellow	1	up	up	GLO	none	close	1	intact	intact	fdcb9b5f-28c7-4da4-867c-57e1763a716c_fps_avg_aud.mp4	0	0	NaN	NaN	NaN	none	none	NaN	0	0
402	2	53	1	auto	1.5	NaN	yellow	1	right	right	GLO	none	close	1	intact	intact	bd5cc988-d64f-435a-a1d7-3a872e473f76_fps_avg_aud.mp4	0	0	NaN	NaN	NaN	none	none	NaN	0	0
402	2	54	1	auto	1.5	NaN	red	0	down	down	GLO	none	close	0	intact	none	none	0	0	NaN	NaN	NaN	none	none	NaN	0	0
402	2	55	1	auto	1.5	NaN	yellow	0	left	left	GLO	none	far	1	intact	intact	Feb25_fps_avg_aud.mp4	0	0	NaN	NaN	NaN	none	none	NaN	0	0
402	2	56	1	auto	1.5	NaN	yellow	1	right	right	GLO	none	far	1	intact	intact	5b4edd74-dc10-4920-b508-c0b2f21238c3_fps_avg_aud.mp4	0	0	NaN	NaN	NaN	none	none	NaN	0	0
402	2	57	1	auto	1.5	NaN	red	1	right	right	GLO	none	far	1	intact	intact	79c2a399-1c19-4b6a-a7be-ad19cd183d03_fps_avg_aud.mp4	0	0	NaN	NaN	NaN	none	none	NaN	0	0
402	2	58	1	auto	1.5	NaN	green	1	down	down	GLO	none	close	1	intact	intact	d19912fa-a840-4a29-b318-5be5c947f24f_fps_avg_aud.mp4	0	0	NaN	NaN	NaN	none	none	NaN	0	0
402	2	59	1	auto	1.5	NaN	green	1	up	up	GLO	none	far	0	intact	none	none	0	0	NaN	NaN	NaN	none	none	NaN	0	0
402	2	60	1	auto	1.5	NaN	blue	0	up	up	GLO	none	close	0	intact	none	none	0	0	NaN	NaN	NaN	none	none	NaN	0	0
402	2	61	1	auto	1.5	NaN	red	0	down	down	GLO	none	far	0	intact	none	none	0	0	NaN	NaN	NaN	none	none	NaN	0	0
402	2	62	1	auto	1.5	NaN	blue	1	down	down	GLO	none	close	1	intact	intact	Apr7_fps_avg_aud.mp4	0	0	NaN	NaN	NaN	none	none	NaN	0	0
402	2	63	1	auto	1.5	NaN	red	1	right	right	GLO	none	far	1	intact	intact	c939d2dd-f401-4cdf-bab0-fe7457cad0a4_fps_avg_aud.mp4	0	0	NaN	NaN	NaN	none	none	NaN	0	0
402	2	64	1	auto	1.5	NaN	yellow	0	left	left	GLO	none	close	1	intact	intact	149f1481-9792-4892-beba-4137601f26a6_fps_avg_aud.mp4	0	0	NaN	NaN	NaN	none	none	NaN	0	0
402	2	65	1	auto	1.5	NaN	yellow	1	right	right	GLO	none	far	1	intact	intact	342c3db7-0e7e-4cf9-b04c-0d7bba48d8bb_fps_avg_aud.mp4	0	0	NaN	NaN	NaN	none	none	NaN	0	0
402	2	66	1	auto	1.5	NaN	yellow	0	left	left	GLO	none	far	1	intact	intact	May7_fps_avg_aud.mp4	0	0	NaN	NaN	NaN	none	none	NaN	0	0
402	2	67	1	auto	1.5	NaN	yellow	0	left	left	GLO	none	far	1	intact	intact	af0fa101-699c-45fe-9ac0-b3a3d283604b_fps_avg_aud.mp4	0	0	NaN	NaN	NaN	none	none	NaN	0	0
402	2	68	1	auto	1.5	NaN	blue	0	up	up	GLO	none	close	1	intact	intact	may_2015_fps_avg_aud.mp4	0	0	NaN	NaN	NaN	none	none	NaN	0	0
402	2	69	1	auto	1.5	NaN	yellow	0	left	left	GLO	none	close	0	intact	none	none	0	0	NaN	NaN	NaN	none	none	NaN	0	0
402	2	70	1	auto	1.5	NaN	yellow	1	right	right	GLO	none	close	1	intact	intact	5022b285-2c2f-4e4f-824d-5e45be82c1a3_fps_avg_aud.mp4	0	0	NaN	NaN	NaN	none	none	NaN	0	0
402	2	71	1	auto	1.5	NaN	red	1	right	right	GLO	none	far	0	intact	none	none	0	0	NaN	NaN	NaN	none	none	NaN	0	0
402	2	72	1	auto	1.5	NaN	red	0	down	down	GLO	none	close	0	intact	none	none	0	0	NaN	NaN	NaN	none	none	NaN	0	0
402	2	73	1	auto	1.5	NaN	red	1	up	up	GLO	none	far	1	intact	intact	Jul10_fps_avg_aud.mp4	0	0	NaN	NaN	NaN	none	none	NaN	0	0
402	2	74	1	auto	1.5	NaN	blue	1	left	left	GLO	none	far	0	intact	none	none	0	0	NaN	NaN	NaN	none	none	NaN	0	0
402	2	75	1	auto	1.5	NaN	red	1	right	right	GLO	none	close	0	intact	none	none	0	0	NaN	NaN	NaN	none	none	NaN	0	0
402	2	76	1	auto	1.5	NaN	blue	0	up	up	GLO	none	far	1	intact	intact	fa34c2a5-d3e2-4d1e-914f-e40c92a49120_fps_avg_aud.mp4	0	0	NaN	NaN	NaN	none	none	NaN	0	0
402	2	77	1	auto	1.5	NaN	blue	1	down	down	GLO	none	far	1	intact	intact	cfead01b-2f72-4131-8069-3f2052f352e3_fps_avg_aud.mp4	0	0	NaN	NaN	NaN	none	none	NaN	0	0
402	2	78	1	auto	1.5	NaN	green	0	right	right	GLO	none	far	1	intact	intact	8a8f2893-dc1c-441b-8b88-03672ad98bf9_fps_avg_aud.mp4	0	0	NaN	NaN	NaN	none	none	NaN	0	0
402	2	79	1	auto	1.5	NaN	blue	0	up	up	GLO	none	close	0	intact	none	none	0	0	NaN	NaN	NaN	none	none	NaN	0	0
402	2	80	1	auto	1.5	NaN	red	1	right	right	GLO	none	close	0	intact	none	none	0	0	NaN	NaN	NaN	none	none	NaN	0	0
402	2	81	1	auto	1.5	NaN	green	0	right	right	GLO	none	close	1	intact	intact	16ad27d6-0718-41b8-94e7-1c37789ce6cb_fps_avg_aud.mp4	0	0	NaN	NaN	NaN	none	none	NaN	0	0
402	2	82	1	auto	1.5	NaN	green	0	right	right	GLO	none	close	1	intact	intact	deff750b-b4a4-440e-a47d-eb4c56f93a9d_fps_avg_aud.mp4	0	0	NaN	NaN	NaN	none	none	NaN	0	0
402	2	83	1	auto	1.5	NaN	green	0	right	right	GLO	none	close	1	intact	intact	Sep7_fps_avg_aud.mp4	0	0	NaN	NaN	NaN	none	none	NaN	0	0
402	2	84	1	auto	1.5	NaN	red	1	right	right	GLO	none	close	0	intact	none	none	0	0	NaN	NaN	NaN	none	none	NaN	0	0
402	2	85	1	auto	1.5	NaN	green	1	up	up	GLO	none	far	1	intact	intact	a5a4b0ce-b05f-41d9-b172-00b13f0d8828_fps_avg_aud.mp4	0	0	NaN	NaN	NaN	none	none	NaN	0	0
402	2	86	1	auto	1.5	NaN	blue	0	up	up	GLO	none	close	0	intact	none	none	0	0	NaN	NaN	NaN	none	none	NaN	0	0
402	2	87	1	auto	1.5	NaN	yellow	1	up	up	GLO	none	close	1	intact	intact	16fe28b7-019b-49e7-9b4b-6b9fba85fe3d_fps_avg_aud.mp4	0	0	NaN	NaN	NaN	none	none	NaN	0	0
402	2	88	1	auto	1.5	NaN	red	1	up	up	GLO	none	far	1	intact	intact	8e8c5e28-7fba-491b-88f9-891e8e26ddbd_fps_avg_aud.mp4	0	0	NaN	NaN	NaN	none	none	NaN	0	0
402	2	89	1	auto	1.5	NaN	green	0	right	right	GLO	none	close	1	intact	intact	abff9cfd-d67a-47e2-bc3f-92551e8414e2(1)_fps_avg_aud.mp4	0	0	NaN	NaN	NaN	none	none	NaN	0	0
402	2	90	1	auto	1.5	NaN	red	1	left	left	GLO	none	close	1	intact	intact	108f257a-1892-40f5-b9e3-6eb0557bc08c(1)_fps_avg_aud.mp4	0	0	NaN	NaN	NaN	none	none	NaN	0	0
402	2	91	1	auto	1.5	NaN	green	1	left	left	GLO	none	close	1	intact	intact	f88c90ff-41f4-4220-a305-426fa931932f_fps_avg_aud.mp4	0	0	NaN	NaN	NaN	none	none	NaN	0	0
402	2	92	1	auto	1.5	NaN	yellow	0	left	left	GLO	none	close	0	intact	none	none	0	0	NaN	NaN	NaN	none	none	NaN	0	0
402	2	93	1	auto	1.5	NaN	blue	1	down	down	GLO	none	far	0	intact	none	none	0	0	NaN	NaN	NaN	none	none	NaN	0	0
402	3	1	1	self	0.5	0.515709	green	1	up	up	GLO	right	close	1	intact	intact	fd318c50-e133-4dc8-918b-b97094aebdf0_fps_avg_aud.mp4	0	0	1.13438	0	1	right	green	1	0	0
402	3	2	1	self	0.5	0.516744	yellow	0	left	left	GLO	left	far	1	intact	intact	de76edf3-7c24-4386-8e6c-01dd4c15291d_fps_avg_aud.mp4	0	0	0.677421	0	1	left	yellow	1	0	0
402	3	3	1	self	0.5	0.516606	yellow	1	right	right	GLO	right	far	1	intact	intact	030a135d-605a-42ea-902a-469aeded471a_fps_avg_aud.mp4	0	0	1.0839	0	1	left	yellow	1	0	0
402	3	4	1	self	0.5	0.516239	red	0	down	down	GLO	left	far	1	intact	intact	0fca764b-7147-4307-96dc-cc1807afd905_fps_avg_aud.mp4	0	0	0.617766	0	1	down	red	1	0	0
402	3	5	1	self	0.5	0.51612	blue	0	up	up	GLO	right	close	1	intact	intact	4d617426-ab8c-4125-9dcf-178529ca54a1_fps_avg_aud.mp4	0	0	0.650546	0	1	up	blue	1	0	0
402	3	6	1	self	0.5	0.516333	red	1	right	right	GLO	right	far	1	intact	intact	fd4a95d6-f171-4c0b-8de2-e9ca909c9eff_fps_avg_aud.mp4	0	0	0.916212	0	1	down	red	1	0	0
402	3	7	1	self	0.5	0.517288	red	0	down	down	GLO	right	close	1	intact	intact	Nov11_fps_avg_aud.mp4	0	0	0.915729	0	1	down	red	1	0	0
402	3	8	1	self	0.5	0.517286	green	1	left	left	GLO	left	close	1	intact	intact	11bc07f6-cbc9-48b9-a240-792e373d6a2a_fps_avg_aud.mp4	0	0	0.799692	0	1	right	green	1	0	0
402	3	9	1	self	0.5	0.516319	blue	0	up	up	GLO	left	far	1	intact	intact	93875f0f-82c8-483c-b71c-a32b6cf111d2_fps_avg_aud.mp4	0	0	0.615824	0	1	up	blue	1	0	0
402	3	10	1	self	0.5	0.516606	blue	1	right	right	GLO	left	close	1	intact	intact	ae455cc0-190e-4a3d-907c-79f241176900_fps_avg_aud.mp4	0	0	0.673095	0	1	up	blue	1	0	0
402	3	11	1	self	0.5	0.515796	red	1	left	left	GLO	right	far	1	intact	intact	d1495dc6-3264-40ae-807f-007f3ab4bdee_fps_avg_aud.mp4	0	0	0.900151	0	1	down	red	1	0	0
402	3	12	1	self	0.5	0.51623	yellow	0	left	left	GLO	left	close	1	intact	intact	bde7c25a-0ad2-4261-821f-9cae1d4d4033_fps_avg_aud.mp4	0	0	0.734213	0	1	left	yellow	1	0	0
402	3	13	1	self	0.5	0.516839	red	1	left	left	GLO	right	far	1	intact	intact	Jan31_fps_avg_aud.mp4	0	0	0.915935	0	1	down	red	1	0	0
402	3	14	1	self	0.5	0.515997	yellow	1	right	right	GLO	left	close	1	intact	intact	f641fc6b-8728-47c9-b90c-11b1af7f196e_fps_avg_aud.mp4	0	0	0.685062	0	1	left	yellow	1	0	0
402	3	15	1	self	0.5	0.516088	green	0	right	right	GLO	left	far	1	intact	intact	Aug12_fps_avg_aud.mp4	0	0	0.944071	0	1	right	green	1	0	0
402	3	16	1	self	0.5	0.516833	yellow	0	left	left	GLO	right	far	1	intact	intact	5b49bfdf-720d-437c-bb4f-da8fd9a14bdf_fps_avg_aud.mp4	0	0	0.667145	0	1	left	yellow	1	0	0
402	3	17	1	self	0.5	0.516868	red	0	down	down	GLO	left	close	1	intact	intact	31c3bae2-faf4-4718-b53b-2e88624b3fa5_fps_avg_aud.mp4	0	0	0.550663	0	1	down	red	1	0	0
402	3	18	1	self	0.5	0.517501	yellow	1	up	up	GLO	right	close	1	intact	intact	637444dd-82ca-432a-beab-7eb721de8b71_fps_avg_aud.mp4	0	0	0.612937	0	1	left	yellow	1	0	0
402	3	19	1	self	0.5	0.516892	yellow	1	right	right	GLO	left	far	1	intact	intact	108f257a-1892-40f5-b9e3-6eb0557bc08c(1)_fps_avg_aud.mp4	0	0	0.583333	0	1	left	yellow	1	0	0
402	3	20	1	self	0.5	0.517507	blue	1	right	right	GLO	left	close	1	intact	intact	9747c74d-dde2-4f34-b67e-0e02a9c1a69c_fps_avg_aud.mp4	0	0	0.716677	0	1	up	blue	1	0	0
402	3	21	1	self	1.5	1.51666	red	1	right	right	GLO	right	far	1	intact	intact	f001cded-b985-4905-a6ac-c1793ff8fab2_fps_avg_aud.mp4	0	0	0.733968	0	1	down	red	1	0	0
402	3	22	1	self	1.5	1.5163	blue	0	up	up	GLO	right	close	1	intact	intact	Sep20_fps_avg_aud.mp4	0	0	0.583148	0	1	up	blue	1	0	0
402	3	23	1	self	1.5	1.51639	yellow	0	left	left	GLO	right	far	1	intact	intact	9df4c83d-45cc-4501-be4d-279a04192ba4_fps_avg_aud.mp4	0	0	0.600442	0	1	left	yellow	1	0	0
402	3	24	1	self	1.5	1.51669	green	0	right	right	GLO	right	far	1	intact	intact	Mar25_fps_avg_aud.mp4	0	0	0.976523	0	1	right	green	1	0	0
402	3	25	1	self	1.5	1.5168	yellow	1	up	up	GLO	left	far	1	intact	intact	9bd7a199-78f1-4f14-9fde-3a11c0ebd236_fps_avg_aud.mp4	0	0	0.841732	0	1	left	yellow	1	0	0
402	3	26	1	self	1.5	1.51703	blue	0	up	up	GLO	right	close	1	intact	intact	1affd9f8-27af-4e8b-9985-5f3abbee6931_fps_avg_aud.mp4	0	0	0.867315	0	1	up	blue	1	0	0
402	3	27	1	self	1.5	1.51696	red	1	left	left	GLO	right	far	1	intact	intact	caf1693c-0eef-47ff-aee9-5348af86759e_fps_avg_aud.mp4	0	0	0.883265	0	1	left	yellow	0	0	0
402	3	28	1	self	1.5	1.51588	green	0	right	right	GLO	left	close	1	intact	intact	226bfd42-14d0-45a1-82ba-233f4ddec70a_fps_avg_aud.mp4	0	0	0.717672	0	1	right	green	1	0	0
402	3	29	1	self	1.5	1.51627	blue	0	up	up	GLO	right	close	1	intact	intact	July2_fps_avg_aud.mp4	0	0	0.683023	0	1	up	blue	1	0	0
402	3	30	1	self	1.5	1.51607	yellow	0	left	left	GLO	left	close	1	intact	intact	cea732af-276b-4e98-ac0e-85adfd7a4545_fps_avg_aud.mp4	0	0	0.767702	0	1	left	yellow	1	0	0
402	3	31	1	self	1.5	1.51612	red	0	down	down	GLO	left	close	1	intact	intact	October_4_2015_fps_avg_aud.mp4	0	0	0.650785	0	1	down	red	1	0	0
402	3	32	1	self	1.5	1.51726	green	1	up	up	GLO	left	far	1	intact	intact	0634b486-cb5f-4c95-88ac-759458166474_fps_avg_aud.mp4	0	0	0.834021	0	1	right	green	1	0	0
402	3	33	1	self	1.5	NaN	green	1	up	up	GLO	none	far	1	intact	intact	54741aa9-fdb7-4546-b60b-078b0914ddd1_fps_avg_aud.mp4	0	0	NaN	NaN	NaN	none	none	NaN	0	0
402	3	34	1	self	1.5	NaN	yellow	0	left	left	GLO	none	close	1	intact	intact	fc42fffc-beb2-426f-85f8-fe9f11671486_fps_avg_aud.mp4	0	0	NaN	NaN	NaN	none	none	NaN	0	0
402	3	35	1	self	1.5	NaN	green	1	left	left	GLO	none	far	1	intact	intact	January_2016_(2)_fps_avg_aud.mp4	0	0	NaN	NaN	NaN	none	none	NaN	0	0
402	3	36	1	self	1.5	NaN	green	1	down	down	GLO	none	close	1	intact	intact	06fe833b-37ac-4f46-b915-fda1c2b107fe_fps_avg_aud.mp4	0	0	NaN	NaN	NaN	none	none	NaN	0	0
402	3	37	1	self	1.5	NaN	red	0	down	down	GLO	none	close	1	intact	intact	Nov19_fps_avg_aud.mp4	0	0	NaN	NaN	NaN	none	none	NaN	0	0
402	3	38	1	self	1.5	NaN	red	1	right	right	GLO	none	far	1	intact	intact	e57a35d6-39b7-4b9c-a4a1-844e0bebd3c1_fps_avg_aud.mp4	0	0	NaN	NaN	NaN	none	none	NaN	0	0
402	3	39	1	self	1.5	NaN	blue	0	up	up	GLO	none	close	1	intact	intact	cb6ef54e-2b4c-4064-8d68-1ca2b2e8a47c_fps_avg_aud.mp4	0	0	NaN	NaN	NaN	none	none	NaN	0	0
402	3	40	1	self	1.5	NaN	yellow	0	left	left	GLO	none	far	1	intact	intact	25a8b4d4-d5c7-4aab-af49-84ebba90c3be_fps_avg_aud.mp4	0	0	NaN	NaN	NaN	none	none	NaN	0	0
402	3	41	1	self	1.5	NaN	red	1	up	up	GLO	none	far	1	intact	intact	Dec26_fps_avg_aud.mp4	0	0	NaN	NaN	NaN	none	none	NaN	0	0
402	3	42	1	self	1.5	NaN	yellow	1	up	up	GLO	none	far	1	intact	intact	639855c9-f7b0-4d31-8ca6-c12b36f03058_fps_avg_aud.mp4	0	0	NaN	NaN	NaN	none	none	NaN	0	0
402	3	43	1	self	1.5	NaN	green	1	down	down	GLO	none	far	1	intact	intact	fc2af016-0a80-4148-823b-d9176c33cf3a_fps_avg_aud.mp4	0	0	NaN	NaN	NaN	none	none	NaN	0	0
402	3	44	1	self	1.5	NaN	red	0	down	down	GLO	none	far	1	intact	intact	May25_fps_avg_aud.mp4	0	0	NaN	NaN	NaN	none	none	NaN	0	0
402	3	45	1	self	1.5	NaN	red	0	down	down	GLO	none	far	1	intact	intact	592c03b4-010b-4f30-8521-fbf254e827b0_fps_avg_aud.mp4	0	0	NaN	NaN	NaN	none	none	NaN	0	0
402	3	46	1	self	1.5	NaN	green	0	right	right	GLO	none	close	1	intact	intact	80bae024-90b7-4369-88be-93c1000385ef_fps_avg_aud.mp4	0	0	NaN	NaN	NaN	none	none	NaN	0	0
402	3	47	1	self	1.5	NaN	green	1	down	down	GLO	none	close	1	intact	intact	6aaea3fa-b030-41d1-8780-a1c1120cd763_fps_avg_aud.mp4	0	0	NaN	NaN	NaN	none	none	NaN	0	0
402	3	48	1	self	1.5	NaN	yellow	0	left	left	GLO	none	far	1	intact	intact	a9843691-e4cb-4c12-aa70-47f2024c5698_fps_avg_aud.mp4	0	0	NaN	NaN	NaN	none	none	NaN	0	0
402	3	49	1	self	1.5	NaN	blue	0	up	up	GLO	none	far	1	intact	intact	16fe28b7-019b-49e7-9b4b-6b9fba85fe3d_fps_avg_aud.mp4	0	0	NaN	NaN	NaN	none	none	NaN	0	0
402	3	50	1	self	1.5	NaN	blue	1	down	down	GLO	none	far	1	intact	intact	march_21_2016_fps_avg_aud.mp4	0	0	NaN	NaN	NaN	none	none	NaN	0	0
402	3	51	1	self	1.5	NaN	yellow	0	left	left	GLO	none	far	1	intact	intact	October_2015_fps_avg_aud.mp4	0	0	NaN	NaN	NaN	none	none	NaN	0	0
402	3	52	1	self	1.5	NaN	green	1	down	down	GLO	none	far	1	intact	intact	94b03dc1-7d37-4553-b382-cb9494e3b7f1_fps_avg_aud.mp4	0	0	NaN	NaN	NaN	none	none	NaN	0	0
402	3	53	1	self	1.5	NaN	red	0	down	down	GLO	none	close	1	intact	intact	fa34c2a5-d3e2-4d1e-914f-e40c92a49120_fps_avg_aud.mp4	0	0	NaN	NaN	NaN	none	none	NaN	0	0
402	3	54	1	self	1.5	NaN	red	0	down	down	GLO	none	far	1	intact	intact	cad0ae4f-8fd8-463e-9880-f0c1f9462bac_fps_avg_aud.mp4	0	0	NaN	NaN	NaN	none	none	NaN	0	0
402	3	55	1	self	1.5	NaN	blue	1	down	down	GLO	none	far	1	intact	intact	7c00c850-e528-473f-895e-ee9be83c7963_fps_avg_aud.mp4	0	0	NaN	NaN	NaN	none	none	NaN	0	0
402	3	56	1	self	1.5	NaN	green	1	up	up	GLO	none	far	1	intact	intact	July_2016_fps_avg_aud.mp4	0	0	NaN	NaN	NaN	none	none	NaN	0	0
402	3	57	1	self	1.5	NaN	yellow	1	down	down	GLO	none	close	1	intact	intact	Dec11_fps_avg_aud.mp4	0	0	NaN	NaN	NaN	none	none	NaN	0	0
402	3	58	1	self	1.5	NaN	green	1	left	left	GLO	none	far	1	intact	intact	May28_fps_avg_aud.mp4	0	0	NaN	NaN	NaN	none	none	NaN	0	0
402	3	59	1	self	1.5	NaN	green	0	right	right	GLO	none	close	1	intact	intact	8fa6e47a-355a-4a52-986e-ef49886619e0_fps_avg_aud.mp4	0	0	NaN	NaN	NaN	none	none	NaN	0	0
402	3	60	1	self	1.5	NaN	blue	1	left	left	GLO	none	close	1	intact	intact	4492b756-14ac-4694-8c38-fa7503b864e1_fps_avg_aud.mp4	0	0	NaN	NaN	NaN	none	none	NaN	0	0
402	3	61	1	self	1.5	NaN	green	0	right	right	GLO	none	close	1	intact	intact	91a36f37-93be-4754-9ddb-f173f29574e1_fps_avg_aud.mp4	0	0	NaN	NaN	NaN	none	none	NaN	0	0
402	3	62	1	self	1.5	NaN	green	1	up	up	GLO	none	far	1	intact	intact	June_2016_(2)_fps_avg_aud.mp4	0	0	NaN	NaN	NaN	none	none	NaN	0	0
402	3	63	1	self	1.5	NaN	red	1	up	up	GLO	none	close	1	intact	intact	b4d84d1f-224c-4414-9045-0f7e4fc94012_fps_avg_aud.mp4	0	0	NaN	NaN	NaN	none	none	NaN	0	0
402	3	64	1	self	1.5	NaN	blue	1	right	right	GLO	none	close	1	intact	intact	667c6586-78bc-49b6-b207-12bdfa8fdd9e_fps_avg_aud.mp4	0	0	NaN	NaN	NaN	none	none	NaN	0	0
402	3	65	1	self	1.5	NaN	yellow	0	left	left	GLO	none	close	1	intact	intact	Feb19_fps_avg_aud.mp4	0	0	NaN	NaN	NaN	none	none	NaN	0	0
402	3	66	1	self	1.5	NaN	red	0	down	down	GLO	none	close	1	intact	intact	339eedaf-ff90-439f-b68a-797258b27c12_fps_avg_aud.mp4	0	0	NaN	NaN	NaN	none	none	NaN	0	0
402	3	67	1	self	1.5	NaN	yellow	1	up	up	GLO	none	close	1	intact	intact	01790276-7d56-4063-9522-da49270e2a6b_fps_avg_aud.mp4	0	0	NaN	NaN	NaN	none	none	NaN	0	0
402	3	68	1	self	1.5	NaN	red	1	left	left	GLO	none	far	1	intact	intact	May18_fps_avg_aud.mp4	0	0	NaN	NaN	NaN	none	none	NaN	0	0
402	3	69	1	self	1.5	NaN	yellow	1	right	right	GLO	none	far	1	intact	intact	058bdf98-bb64-4851-92f5-ffad71866ee8_fps_avg_aud.mp4	0	0	NaN	NaN	NaN	none	none	NaN	0	0
402	3	70	1	self	1.5	NaN	yellow	1	up	up	GLO	none	far	1	intact	intact	4d7a8a8c-063f-4a89-bd24-c32713b6ffa7_fps_avg_aud.mp4	0	0	NaN	NaN	NaN	none	none	NaN	0	0
402	3	71	1	self	1.5	NaN	blue	1	right	right	GLO	none	far	1	intact	intact	0ab2bdff-924c-46d2-b610-671d6f4f673e_fps_avg_aud.mp4	0	0	NaN	NaN	NaN	none	none	NaN	0	0
402	3	72	1	self	1.5	NaN	green	0	right	right	GLO	none	far	1	intact	intact	d928ad07-fccb-4758-905a-ca2e2f1c06b6_fps_avg_aud.mp4	0	0	NaN	NaN	NaN	none	none	NaN	0	0
402	3	73	1	self	1.5	NaN	blue	1	right	right	GLO	none	far	1	intact	intact	Feb29_fps_avg_aud.mp4	0	0	NaN	NaN	NaN	none	none	NaN	0	0
402	3	74	1	self	1.5	NaN	red	0	down	down	GLO	none	far	1	intact	intact	Jun8_fps_avg_aud.mp4	0	0	NaN	NaN	NaN	none	none	NaN	0	0
402	3	75	1	self	1.5	NaN	yellow	0	left	left	GLO	none	far	1	intact	intact	af1072d0-b5fe-435b-b10d-545750eb973b_fps_avg_aud.mp4	0	0	NaN	NaN	NaN	none	none	NaN	0	0
402	3	76	1	self	1.5	NaN	blue	0	up	up	GLO	none	close	1	intact	intact	98afb848-1bd2-46a6-89c7-32d60d6d1855_fps_avg_aud.mp4	0	0	NaN	NaN	NaN	none	none	NaN	0	0
402	3	77	1	self	1.5	NaN	green	0	right	right	GLO	none	far	1	intact	intact	Nov25_fps_avg_aud.mp4	0	0	NaN	NaN	NaN	none	none	NaN	0	0
402	3	78	1	self	1.5	NaN	green	0	right	right	GLO	none	far	1	intact	intact	Mar14_fps_avg_aud.mp4	0	0	NaN	NaN	NaN	none	none	NaN	0	0
402	3	79	1	self	1.5	NaN	red	1	left	left	GLO	none	far	1	intact	intact	11f7e237-860e-4d5b-9743-89fc16a3360b_fps_avg_aud.mp4	0	0	NaN	NaN	NaN	none	none	NaN	0	0
402	3	80	1	self	1.5	NaN	green	1	up	up	GLO	none	far	1	intact	intact	Mar3_fps_avg_aud.mp4	0	0	NaN	NaN	NaN	none	none	NaN	0	0
402	3	81	1	self	1.5	NaN	blue	0	up	up	GLO	none	far	1	intact	intact	June_2016_(1)_fps_avg_aud.mp4	0	0	NaN	NaN	NaN	none	none	NaN	0	0
402	3	82	1	self	1.5	NaN	blue	0	up	up	GLO	none	far	1	intact	intact	c5792f9d-c420-493b-acf2-46528babd08c_fps_avg_aud.mp4	0	0	NaN	NaN	NaN	none	none	NaN	0	0
402	3	83	1	self	1.5	NaN	yellow	0	left	left	GLO	none	far	1	intact	intact	f7063dab-b99f-4ced-99a1-d8e067de3ccd_fps_avg_aud.mp4	0	0	NaN	NaN	NaN	none	none	NaN	0	0
402	3	84	1	self	1.5	NaN	yellow	1	up	up	GLO	none	far	1	intact	intact	0fb53cd4-6c5a-4fee-a2f6-e37a34d597fc_fps_avg_aud.mp4	0	0	NaN	NaN	NaN	none	none	NaN	0	0
402	3	85	1	self	1.5	NaN	yellow	0	left	left	GLO	none	close	1	intact	intact	Feb11_fps_avg_aud.mp4	0	0	NaN	NaN	NaN	none	none	NaN	0	0
402	3	86	1	self	1.5	NaN	yellow	0	left	left	GLO	none	close	1	intact	intact	Feb28_fps_avg_aud.mp4	0	0	NaN	NaN	NaN	none	none	NaN	0	0
402	3	87	1	self	1.5	NaN	red	0	down	down	GLO	none	close	1	intact	intact	Jul4_fps_avg_aud.mp4	0	0	NaN	NaN	NaN	none	none	NaN	0	0
402	3	88	1	self	1.5	NaN	blue	1	left	left	GLO	none	close	1	intact	intact	june_18_2015_fps_avg_aud.mp4	0	0	NaN	NaN	NaN	none	none	NaN	0	0
402	3	89	1	self	1.5	NaN	yellow	1	up	up	GLO	none	close	1	intact	intact	801d308b-7fe8-4a7f-8ad6-dafa42c9e3af_fps_avg_aud.mp4	0	0	NaN	NaN	NaN	none	none	NaN	0	0
402	3	90	1	self	1.5	NaN	red	0	down	down	GLO	none	close	1	intact	intact	Apr2_fps_avg_aud.mp4	0	0	NaN	NaN	NaN	none	none	NaN	0	0
402	3	91	1	self	1.5	NaN	red	0	down	down	GLO	none	far	1	intact	intact	34317ec5-8b9d-4b06-8954-49f3b4c2619c_fps_avg_aud.mp4	0	0	NaN	NaN	NaN	none	none	NaN	0	0
402	3	92	1	self	1.5	NaN	yellow	0	left	left	GLO	none	close	1	intact	intact	May19_fps_avg_aud.mp4	0	0	NaN	NaN	NaN	none	none	NaN	0	0
402	3	93	1	self	1.5	NaN	blue	1	left	left	GLO	none	close	1	intact	intact	14b4b9c3-9408-4ec8-bd84-8e92a4405645_fps_avg_aud.mp4	0	0	NaN	NaN	NaN	none	none	NaN	0	0
402	4	1	0	auto	0.5	0.516636	blue	0	up	up	GLO	left	close	0	intact	none	none	0	0	0.934027	0	1	up	blue	1	0.001	low
402	4	2	0	auto	0.5	0.516212	blue	1	right	right	GLO	right	close	1	intact	intact	Sep22_fps_avg_aud.mp4	1	0	0.674432	0	1	up	blue	1	0.002	low
402	4	3	0	auto	0.5	0.517029	yellow	0	left	left	GLO	left	close	1	intact	intact	Oct13_fps_avg_aud.mp4	1	0	0.689511	0	1	left	yellow	1	0.003	low
402	4	4	0	auto	0.5	0.51722	green	1	left	left	GLO	right	far	0	intact	none	none	0	0	0.666443	0	1	right	green	1	0.004	low
402	4	5	0	auto	0.5	0.517192	green	1	left	left	GLO	left	far	0	intact	none	none	0	0	0.683758	0	1	right	green	1	0.005	low
402	4	6	0	auto	0.5	0.516285	green	1	up	up	GLO	left	close	0	intact	none	none	0	0	0.55079	0	1	right	green	1	0.006	low
402	4	7	0	auto	0.5	0.515993	green	0	right	right	GLO	right	far	0	intact	none	none	0	0	0.567837	0	1	right	green	1	0.007	low
402	4	8	0	auto	0.5	0.516763	red	0	down	down	GLO	right	close	0	intact	none	none	0	0	0.633919	0	1	down	red	1	0.008	low
402	4	9	0	auto	0.5	0.516375	blue	0	up	up	GLO	left	far	0	intact	none	none	0	0	0.567093	0	1	up	blue	1	0.009	low
402	4	10	0	auto	0.5	0.516959	yellow	1	up	up	GLO	left	close	1	intact	intact	June_17_2015_fps_avg_aud.mp4	1	0	1.45815	0	1	left	yellow	1	0.01	low
402	4	11	0	auto	0.5	0.515922	yellow	1	down	down	GLO	left	close	1	intact	intact	612a0f1b-c1f3-4c75-bb69-404849fe6ff8_fps_avg_aud.mp4	1	0	1.30029	0	1	left	yellow	1	0.011	low
402	4	12	0	auto	0.5	0.516693	red	0	down	down	GLO	left	far	1	intact	intact	Mar21_fps_avg_aud.mp4	1	0	0.894838	0	1	down	red	1	0.012	low
402	4	13	0	auto	0.5	0.51704	yellow	1	down	down	GLO	right	far	1	intact	intact	b4701d82-e6b3-47a6-bf5c-596818c9d778_fps_avg_aud.mp4	1	0	1.08901	0	1	left	yellow	1	0.013	low
402	4	14	0	auto	0.5	0.516266	blue	1	right	right	GLO	right	far	1	intact	intact	34317ec5-8b9d-4b06-8954-49f3b4c2619c_fps_avg_aud.mp4	1	0	0.90898	0	1	up	blue	1	0.014	low
402	4	15	0	auto	0.5	0.517427	blue	1	left	left	GLO	left	close	1	intact	intact	a9843691-e4cb-4c12-aa70-47f2024c5698_fps_avg_aud.mp4	1	0	0.910602	0	1	up	blue	1	0.015	low
402	4	16	0	auto	0.5	0.51655	red	0	down	down	GLO	left	far	1	intact	intact	80bae024-90b7-4369-88be-93c1000385ef_fps_avg_aud.mp4	1	0	0.929414	0	1	down	red	1	0.016	low
402	4	17	0	auto	0.5	0.516509	red	0	down	down	GLO	right	far	1	intact	intact	november_5_2015_fps_avg_aud.mp4	1	32	0.650895	0.10886	2	down	red	1	0.017	low
402	4	18	0	auto	0.5	0.515921	blue	1	left	left	GLO	left	close	1	intact	intact	1ad967f4-1728-4eb7-88a5-9d6ad488c3b4_fps_avg_aud.mp4	1	8	1.13493	0.11649	2	up	blue	1	0.018	low
402	4	19	0	auto	0.5	0.516859	blue	1	right	right	GLO	right	far	1	intact	intact	db8b6c6f-c114-4747-8437-3bfc1210df49_fps_avg_aud.mp4	1	25	0.746049	0.101793	2	up	blue	1	0.019	low
402	4	20	0	auto	0.5	0.517025	green	0	right	right	GLO	left	far	1	intact	intact	ea6675d4-3684-48c3-9bd0-c32d38c48c9e_fps_avg_aud.mp4	1	0	0.933948	0	1	right	green	1	0.02	low
402	4	21	0	auto	0.5	0.516194	yellow	0	left	left	GLO	left	far	1	intact	intact	November_14_2016_fps_avg_aud.mp4	1	0	0.633674	0	1	left	yellow	1	0.021	low
402	4	22	0	auto	0.5	0.517127	yellow	1	right	right	GLO	left	far	0	intact	none	none	0	0	0.683566	0	1	left	yellow	1	0.022	low
402	4	23	0	auto	0.5	0.517402	red	1	left	left	GLO	left	close	1	intact	intact	e9f06abd-24bb-46d2-ac8b-3a473a758d7e_fps_avg_aud.mp4	1	0	0.766888	0	1	down	red	1	0.023	low
402	4	24	0	auto	0.5	0.517015	green	0	right	right	GLO	left	close	1	intact	intact	d19912fa-a840-4a29-b318-5be5c947f24f_fps_avg_aud.mp4	1	0	0.745752	0	1	right	green	1	0.024	low
402	4	25	0	auto	0.5	0.517028	green	1	down	down	GLO	left	close	1	intact	intact	April_2015_(1)_fps_avg_aud.mp4	1	0	1.08648	0	1	right	green	1	0.025	low
402	4	26	0	auto	0.5	0.516779	red	0	down	down	GLO	right	close	0	intact	none	none	0	0	0.698518	0	1	down	red	1	0.026	low
402	4	27	0	auto	0.5	0.516655	yellow	0	left	left	GLO	right	close	0	intact	none	none	0	0	0.6835	0	1	left	yellow	1	0.027	low
402	4	28	0	auto	0.5	0.516283	yellow	1	up	up	GLO	left	far	0	intact	none	none	0	0	0.783814	0	1	left	yellow	1	0.028	low
402	4	29	0	auto	0.5	0.516457	blue	0	up	up	GLO	right	close	1	intact	intact	16ad27d6-0718-41b8-94e7-1c37789ce6cb_fps_avg_aud.mp4	1	0	0.722454	0	1	up	blue	1	0.029	low
402	4	30	0	auto	0.5	0.516764	red	1	up	up	GLO	right	far	1	intact	intact	October_8_2016_fps_avg_aud.mp4	1	0	0.717466	0	1	down	red	1	0.03	low
402	4	31	0	auto	0.5	0.515969	blue	0	up	up	GLO	left	close	1	intact	intact	667c6586-78bc-49b6-b207-12bdfa8fdd9e_fps_avg_aud.mp4	1	0	0.701374	0	1	up	blue	1	0.031	low
402	4	32	0	auto	0.5	0.517026	green	0	right	right	GLO	left	close	1	intact	intact	592c03b4-010b-4f30-8521-fbf254e827b0_fps_avg_aud.mp4	1	0	0.634247	0	1	right	green	1	0.032	low
402	4	33	0	auto	0.5	0.517082	yellow	1	down	down	GLO	right	far	1	intact	intact	f10531c5-f8e7-4f38-bd6c-28ce29d75760_fps_avg_aud.mp4	1	0	0.657978	0	1	left	yellow	1	0.033	low
402	4	34	0	auto	0.5	0.516201	red	0	down	down	GLO	right	far	1	intact	intact	b2b0c46b-c908-4752-b5cb-16abe9f2c872_fps_avg_aud.mp4	1	0	0.733672	0	1	down	red	1	0.034	low
402	4	35	0	auto	0.5	0.51662	yellow	0	left	left	GLO	right	close	1	intact	intact	b23c9ea6-adb6-492c-965f-16af3f7801e9_fps_avg_aud.mp4	1	40	0.757318	0.179545	1	left	yellow	1	0.035	low
402	4	36	0	auto	0.5	0.516812	red	1	left	left	GLO	left	close	1	intact	intact	b35409aa-6325-4736-bc0d-526af5b26b83_fps_avg_aud.mp4	1	0	1.52846	0	1	down	red	1	0.036	low
402	4	37	0	auto	0.5	0.516984	green	1	down	down	GLO	right	close	1	intact	intact	Jun30_fps_avg_aud.mp4	1	0	1.33294	0	1	right	green	1	0.037	low
402	4	38	0	auto	0.5	0.516972	blue	0	up	up	GLO	left	close	0	intact	none	none	0	0	0.595153	0	1	up	blue	1	0.038	low
402	4	39	0	auto	0.5	0.51737	red	0	down	down	GLO	left	far	0	intact	none	none	0	0	0.610215	0	1	down	red	1	0.039	low
402	4	40	0	auto	0.5	0.516007	green	0	right	right	GLO	left	far	0	intact	none	none	0	0	0.557923	0	1	right	green	1	0.04	low
402	4	41	0	auto	0.5	0.516304	red	0	down	down	GLO	left	far	1	intact	intact	ed5c9b46-1903-43ac-bc9d-4681004c3550_fps_avg_aud.mp4	1	0	0.910035	0	1	down	red	1	0.041	low
402	4	42	0	auto	0.5	0.517074	yellow	0	left	left	GLO	left	far	1	intact	intact	98afb848-1bd2-46a6-89c7-32d60d6d1855_fps_avg_aud.mp4	1	0	0.603471	0	1	left	yellow	1	0.042	low
402	4	43	0	auto	0.5	0.517151	yellow	1	up	up	GLO	left	far	0	intact	none	none	0	0	1.2143	0	1	left	yellow	1	0.043	low
402	4	44	0	auto	0.5	0.516231	blue	0	up	up	GLO	left	close	1	intact	intact	Jan19_fps_avg_aud.mp4	1	0	0.733782	0	1	up	blue	1	0.044	low
402	4	45	0	auto	0.5	NaN	red	0	down	down	GLO	none	far	0	intact	none	none	0	0	NaN	NaN	NaN	none	none	NaN	0.044	low
402	4	46	0	auto	0.5	NaN	yellow	1	down	down	GLO	none	close	1	intact	intact	d0082a79-d6fc-4855-80df-f443f4a14e37_fps_avg_aud.mp4	0	0	NaN	NaN	NaN	none	none	NaN	0.044	low
402	4	47	0	auto	0.5	NaN	red	1	up	up	GLO	none	far	1	intact	intact	Jun5_fps_avg_aud.mp4	0	0	NaN	NaN	NaN	none	none	NaN	0.044	low
402	4	48	0	auto	0.5	NaN	blue	0	up	up	GLO	none	close	1	intact	intact	9874ea15-f388-4d7d-ae5d-51013a69fee3_fps_avg_aud.mp4	0	0	NaN	NaN	NaN	none	none	NaN	0.044	low
402	4	49	0	auto	0.5	NaN	red	1	up	up	GLO	none	far	1	intact	intact	Mar20_fps_avg_aud.mp4	0	0	NaN	NaN	NaN	none	none	NaN	0.044	low
402	4	50	0	auto	0.5	NaN	yellow	1	right	right	GLO	none	close	1	intact	intact	02831e99-5ac8-4fc5-9e76-9a04224fb33e_fps_avg_aud.mp4	0	0	NaN	NaN	NaN	none	none	NaN	0.044	low
402	4	51	0	auto	0.5	NaN	red	1	up	up	GLO	none	close	0	intact	none	none	0	0	NaN	NaN	NaN	none	none	NaN	0.044	low
402	4	52	0	auto	0.5	NaN	yellow	1	right	right	GLO	none	close	1	intact	intact	jun13_fps_avg_aud.mp4	0	0	NaN	NaN	NaN	none	none	NaN	0.044	low
402	4	53	0	auto	0.5	NaN	green	0	right	right	GLO	none	far	1	intact	intact	cc1b0f3f-4b74-4315-bb6b-f6c5624cbee1(1)_fps_avg_aud.mp4	0	0	NaN	NaN	NaN	none	none	NaN	0.044	low
402	4	54	0	auto	0.5	NaN	blue	0	up	up	GLO	none	far	1	intact	intact	ae961612-f052-4542-a69c-195487c48d51_fps_avg_aud.mp4	0	0	NaN	NaN	NaN	none	none	NaN	0.044	low
402	4	55	0	auto	0.5	NaN	blue	1	down	down	GLO	none	far	1	intact	intact	August_2016_fps_avg_aud.mp4	0	0	NaN	NaN	NaN	none	none	NaN	0.044	low
402	4	56	0	auto	0.5	NaN	yellow	1	down	down	GLO	none	far	1	intact	intact	359d82dd-3d4c-4029-a89b-66422745c056_fps_avg_aud.mp4	0	0	NaN	NaN	NaN	none	none	NaN	0.044	low
402	4	57	0	auto	0.5	NaN	yellow	1	up	up	GLO	none	close	0	intact	none	none	0	0	NaN	NaN	NaN	none	none	NaN	0.044	low
402	4	58	0	auto	0.5	NaN	green	1	up	up	GLO	none	far	1	intact	intact	f9a11fba-d584-4a74-ba4f-e5eb4ac62b73_fps_avg_aud.mp4	0	0	NaN	NaN	NaN	none	none	NaN	0.044	low
402	4	59	0	auto	0.5	NaN	green	1	down	down	GLO	none	far	1	intact	intact	beb38bd6-976e-468f-9f23-b6b41f12ce11_fps_avg_aud.mp4	0	0	NaN	NaN	NaN	none	none	NaN	0.044	low
402	4	60	0	auto	0.5	NaN	blue	0	up	up	GLO	none	close	1	intact	intact	June_2016_fps_avg_aud.mp4	0	0	NaN	NaN	NaN	none	none	NaN	0.044	low
402	4	61	0	auto	0.5	NaN	red	1	left	left	GLO	none	close	1	intact	intact	Jun6_fps_avg_aud.mp4	0	0	NaN	NaN	NaN	none	none	NaN	0.044	low
402	4	62	0	auto	0.5	NaN	blue	1	down	down	GLO	none	close	1	intact	intact	8ef19348-df54-46b9-9672-f236fb24f042_fps_avg_aud.mp4	0	0	NaN	NaN	NaN	none	none	NaN	0.044	low
402	4	63	0	auto	0.5	NaN	yellow	0	left	left	GLO	none	close	1	intact	intact	Nov25_fps_avg_aud.mp4	0	0	NaN	NaN	NaN	none	none	NaN	0.044	low
402	4	64	0	auto	0.5	NaN	blue	1	left	left	GLO	none	close	1	intact	intact	aef9b535-d7ad-47d4-adb8-d3ac2abf6652_fps_avg_aud.mp4	0	0	NaN	NaN	NaN	none	none	NaN	0.044	low
402	4	65	0	auto	0.5	NaN	red	1	up	up	GLO	none	close	1	intact	intact	b2f11719-a2c9-405c-93a2-abd13a835201_fps_avg_aud.mp4	0	0	NaN	NaN	NaN	none	none	NaN	0.044	low
402	4	66	0	auto	0.5	NaN	yellow	1	up	up	GLO	none	close	0	intact	none	none	0	0	NaN	NaN	NaN	none	none	NaN	0.044	low
402	4	67	0	auto	0.5	NaN	yellow	1	down	down	GLO	none	far	1	intact	intact	Jan4_fps_avg_aud.mp4	0	0	NaN	NaN	NaN	none	none	NaN	0.044	low
402	4	68	0	auto	0.5	NaN	green	0	right	right	GLO	none	close	1	intact	intact	e4815a42-3a54-463e-aeba-1230af20106d_fps_avg_aud.mp4	0	0	NaN	NaN	NaN	none	none	NaN	0.044	low
402	4	69	0	auto	0.5	NaN	green	1	down	down	GLO	none	far	1	intact	intact	October_10_2016_(1)_fps_avg_aud.mp4	0	0	NaN	NaN	NaN	none	none	NaN	0.044	low
402	4	70	0	auto	0.5	NaN	green	0	right	right	GLO	none	far	1	intact	intact	f22090a0-ec04-4dfd-99ca-7810b9650ec8_fps_avg_aud.mp4	0	0	NaN	NaN	NaN	none	none	NaN	0.044	low
402	4	71	0	auto	0.5	NaN	red	0	down	down	GLO	none	far	0	intact	none	none	0	0	NaN	NaN	NaN	none	none	NaN	0.044	low
402	4	72	0	auto	0.5	NaN	green	0	right	right	GLO	none	close	1	intact	intact	d4f25bdd-9060-452d-8b9a-299b4d79a939_fps_avg_aud.mp4	0	0	NaN	NaN	NaN	none	none	NaN	0.044	low
402	4	73	0	auto	0.5	NaN	green	0	right	right	GLO	none	far	0	intact	none	none	0	0	NaN	NaN	NaN	none	none	NaN	0.044	low
402	4	74	0	auto	0.5	NaN	green	1	up	up	GLO	none	far	1	intact	intact	ae455cc0-190e-4a3d-907c-79f241176900_fps_avg_aud.mp4	0	0	NaN	NaN	NaN	none	none	NaN	0.044	low
402	4	75	0	auto	0.5	NaN	yellow	1	up	up	GLO	none	far	1	intact	intact	856001bb-aa8d-41ae-ad3d-fd9ff39c28c0_fps_avg_aud.mp4	0	0	NaN	NaN	NaN	none	none	NaN	0.044	low
402	4	76	0	auto	0.5	NaN	blue	1	right	right	GLO	none	far	1	intact	intact	january_31_2016_fps_avg_aud.mp4	0	0	NaN	NaN	NaN	none	none	NaN	0.044	low
402	4	77	0	auto	0.5	NaN	blue	0	up	up	GLO	none	close	0	intact	none	none	0	0	NaN	NaN	NaN	none	none	NaN	0.044	low
402	4	78	0	auto	0.5	NaN	red	0	down	down	GLO	none	close	1	intact	intact	959dfee9-c1d0-4643-9cbd-f9e818b706fa_fps_avg_aud.mp4	0	0	NaN	NaN	NaN	none	none	NaN	0.044	low
402	4	79	0	auto	0.5	NaN	blue	1	down	down	GLO	none	close	1	intact	intact	e3992607-d25b-430c-bd18-12cb4a6d1b28_fps_avg_aud.mp4	0	0	NaN	NaN	NaN	none	none	NaN	0.044	low
402	4	80	0	auto	0.5	NaN	red	1	right	right	GLO	none	close	0	intact	none	none	0	0	NaN	NaN	NaN	none	none	NaN	0.044	low
402	4	81	0	auto	0.5	NaN	yellow	0	left	left	GLO	none	close	1	intact	intact	8d515f52-784f-4547-b4bd-dfedabc9c31a_fps_avg_aud.mp4	0	0	NaN	NaN	NaN	none	none	NaN	0.044	low
402	4	82	0	auto	0.5	NaN	blue	0	up	up	GLO	none	far	1	intact	intact	54741aa9-fdb7-4546-b60b-078b0914ddd1_fps_avg_aud.mp4	0	0	NaN	NaN	NaN	none	none	NaN	0.044	low
402	4	83	0	auto	0.5	NaN	yellow	1	down	down	GLO	none	far	1	intact	intact	Feb11_fps_avg_aud.mp4	0	0	NaN	NaN	NaN	none	none	NaN	0.044	low
402	4	84	0	auto	0.5	NaN	blue	0	up	up	GLO	none	close	1	intact	intact	Feb1_fps_avg_aud.mp4	0	0	NaN	NaN	NaN	none	none	NaN	0.044	low
402	4	85	0	auto	0.5	NaN	blue	0	up	up	GLO	none	far	1	intact	intact	326ee18c-0cd5-4c39-ac0f-082f53449aa4_fps_avg_aud.mp4	0	0	NaN	NaN	NaN	none	none	NaN	0.044	low
402	4	86	0	auto	0.5	NaN	red	0	down	down	GLO	none	far	1	intact	intact	33d05c43-ee7c-4877-9419-344c4009c91e_fps_avg_aud.mp4	0	0	NaN	NaN	NaN	none	none	NaN	0.044	low
402	4	87	0	auto	0.5	NaN	red	1	up	up	GLO	none	close	0	intact	none	none	0	0	NaN	NaN	NaN	none	none	NaN	0.044	low
402	4	88	0	auto	0.5	NaN	red	0	down	down	GLO	none	far	1	intact	intact	Oct31_fps_avg_aud.mp4	0	0	NaN	NaN	NaN	none	none	NaN	0.044	low
402	4	89	0	auto	0.5	NaN	green	0	right	right	GLO	none	close	1	intact	intact	7ed41b90-fac5-42bc-94a9-a4d7f021d578_fps_avg_aud.mp4	0	0	NaN	NaN	NaN	none	none	NaN	0.044	low
402	4	90	0	auto	0.5	NaN	blue	1	down	down	GLO	none	far	0	intact	none	none	0	0	NaN	NaN	NaN	none	none	NaN	0.044	low
402	4	91	0	auto	0.5	NaN	blue	0	up	up	GLO	none	far	1	intact	intact	May11_fps_avg_aud.mp4	0	0	NaN	NaN	NaN	none	none	NaN	0.044	low
402	4	92	0	auto	0.5	NaN	blue	0	up	up	GLO	none	close	1	intact	intact	919b74e0-dd30-4685-b063-8556e1e10c55_fps_avg_aud.mp4	0	0	NaN	NaN	NaN	none	none	NaN	0.044	low
402	4	93	0	auto	0.5	NaN	yellow	0	left	left	GLO	none	far	1	intact	intact	745865b0-d7b3-440f-840d-03f3a3ef51b1_fps_avg_aud.mp4	0	0	NaN	NaN	NaN	none	none	NaN	0.044	low
402	5	1	0	auto	0.5	0.516614	red	0	down	down	GLO	left	close	0	intact	none	none	0	0	0.633649	0	1	down	red	1	0.054	high
402	5	2	0	auto	0.5	0.516113	yellow	1	up	up	GLO	right	close	1	intact	intact	2925915c-d027-4d48-be00-616870d6d158_fps_avg_aud.mp4	1	0	0.656056	0	1	left	yellow	1	0.064	high
402	5	3	0	auto	0.5	0.516037	green	1	left	left	GLO	right	far	1	intact	intact	Jan1_fps_avg_aud.mp4	1	0	0.647527	0	1	right	green	1	0.074	high
402	5	4	0	auto	0.5	0.517338	blue	1	right	right	GLO	left	close	1	intact	intact	August_2015_fps_avg_aud.mp4	1	0	0.582634	0	1	up	blue	1	0.084	high
402	5	5	0	auto	0.5	0.516485	red	0	down	down	GLO	right	close	1	intact	intact	april_23_2015_fps_avg_aud.mp4	1	0	0.68323	0	1	down	red	1	0.094	high
402	5	6	0	auto	0.5	0.517182	blue	1	left	left	GLO	left	close	1	intact	intact	76b50970-7143-4993-96e1-54ee18b8278e_fps_avg_aud.mp4	1	0	0.607203	0	1	up	blue	1	0.104	high
402	5	7	0	auto	0.5	0.516032	blue	1	down	down	GLO	left	close	1	intact	intact	ec93e301-9c09-4bba-94b5-edac54ba0e07_fps_avg_aud.mp4	1	0	0.683733	0	1	up	blue	1	0.114	high
402	5	8	0	auto	0.5	0.516427	blue	1	down	down	GLO	left	close	0	intact	none	none	0	0	0.875461	0	1	up	blue	1	0.124	high
402	5	9	0	auto	0.5	0.516704	blue	0	up	up	GLO	left	close	0	intact	none	none	0	0	0.616764	0	1	up	blue	1	0.134	high
402	5	10	0	auto	0.5	0.515921	red	0	down	down	GLO	left	far	1	intact	intact	aef9b535-d7ad-47d4-adb8-d3ac2abf6652_fps_avg_aud.mp4	1	0	0.699544	0	1	down	red	1	0.144	high
402	5	11	0	auto	0.5	0.517148	blue	0	up	up	GLO	right	far	1	intact	intact	May_30_2016_fps_avg_aud.mp4	1	0	0.794787	0	1	up	blue	1	0.154	high
402	5	12	0	auto	0.5	0.516368	red	0	down	down	GLO	left	close	1	intact	intact	8fa6e47a-355a-4a52-986e-ef49886619e0_fps_avg_aud.mp4	1	0	0.819299	0	1	down	red	1	0.164	high
402	5	13	0	auto	0.5	0.516651	blue	0	up	up	GLO	right	close	0	intact	none	none	0	0	0.633254	0	1	up	blue	1	0.174	high
402	5	14	0	auto	0.5	0.516108	blue	1	right	right	GLO	left	close	0	intact	none	none	0	0	0.615526	0	1	up	blue	1	0.184	high
402	5	15	0	auto	0.5	0.516399	blue	0	up	up	GLO	left	close	0	intact	none	none	0	0	0.579959	0	1	up	blue	1	0.194	high
402	5	16	0	auto	0.5	0.516343	blue	0	up	up	GLO	right	far	0	intact	none	none	0	0	0.549931	0	1	up	blue	1	0.204	high
402	5	17	0	auto	0.5	0.516299	red	0	down	down	GLO	right	far	0	intact	none	none	0	0	0.534394	0	1	down	red	1	0.214	high
402	5	18	0	auto	0.5	0.516086	red	0	down	down	GLO	right	close	0	intact	none	none	0	0	0.666815	0	1	down	red	1	0.224	high
402	5	19	0	auto	0.5	0.516998	green	1	up	up	GLO	right	close	1	intact	intact	Dec31_fps_avg_aud.mp4	1	0	0.749338	0	1	right	green	1	0.234	high
402	5	20	0	auto	0.5	0.516525	yellow	1	down	down	GLO	right	far	1	intact	intact	Feb28_fps_avg_aud.mp4	1	0	0.577332	0	1	left	yellow	1	0.244	high
402	5	21	0	auto	0.5	0.517167	yellow	0	left	left	GLO	right	far	0	intact	none	none	0	0	0.516114	0	1	left	yellow	1	0.254	high
402	5	22	0	auto	0.5	0.516273	blue	0	up	up	GLO	left	far	1	intact	intact	ae455cc0-190e-4a3d-907c-79f241176900_fps_avg_aud.mp4	1	0	0.592316	0	1	up	blue	1	0.264	high
402	5	23	0	auto	0.5	0.516024	green	1	down	down	GLO	right	far	1	intact	intact	a24b6226-d6e8-4655-b874-d79fefacec8c_fps_avg_aud.mp4	1	0	0.519796	0	1	down	red	0	0.254	high
402	5	24	0	auto	0.5	0.517421	green	0	right	right	GLO	left	far	0	intact	none	none	0	0	0.632986	0	1	right	green	1	0.264	high
402	5	25	0	auto	0.5	0.5171	yellow	0	left	left	GLO	right	far	1	intact	intact	6247a4ca-9a6e-47c1-91f4-5a9925a1c125_fps_avg_aud.mp4	1	0	0.600516	0	1	left	yellow	1	0.274	high
402	5	26	0	auto	0.5	0.517445	red	0	down	down	GLO	right	close	1	intact	intact	fd4a95d6-f171-4c0b-8de2-e9ca909c9eff_fps_avg_aud.mp4	1	0	0.679537	0	1	down	red	1	0.284	high
402	5	27	0	auto	0.5	0.517043	green	0	right	right	GLO	right	close	1	intact	intact	July2_fps_avg_aud.mp4	1	0	0.756192	0	1	right	green	1	0.294	high
402	5	28	0	auto	0.5	0.516653	blue	1	down	down	GLO	right	far	1	intact	intact	6aaea3fa-b030-41d1-8780-a1c1120cd763_fps_avg_aud.mp4	1	0	1.14445	0	1	up	blue	1	0.304	high
402	5	29	0	auto	0.5	0.516835	yellow	0	left	left	GLO	left	close	1	intact	intact	Mar19_fps_avg_aud.mp4	1	0	0.885383	0	1	left	yellow	1	0.314	high
402	5	30	0	auto	0.5	0.517139	red	0	down	down	GLO	left	far	1	intact	intact	049f3843-4d05-4200-8b41-7c0b71c68f4c_fps_avg_aud.mp4	1	0	0.648535	0	1	down	red	1	0.324	high
402	5	31	0	auto	0.5	0.517004	red	0	down	down	GLO	right	close	0	intact	none	none	0	0	0.562137	0	1	down	red	1	0.334	high
402	5	32	0	auto	0.5	0.516948	yellow	1	up	up	GLO	left	close	1	intact	intact	a3a57263-6857-435d-87b3-5c44ae53e10a_fps_avg_aud.mp4	1	0	1.08408	0	1	left	yellow	1	0.344	high
402	5	33	0	auto	0.5	0.516355	red	1	left	left	GLO	right	close	1	intact	intact	May8_fps_avg_aud.mp4	1	0	0.700172	0	1	down	red	1	0.354	high
402	5	34	0	auto	0.5	0.516941	yellow	0	left	left	GLO	left	close	0	intact	none	none	0	0	0.546418	0	1	left	yellow	1	0.364	high
402	5	35	0	auto	0.5	0.516497	blue	1	right	right	GLO	right	far	0	intact	none	none	0	0	0.608537	0	1	up	blue	1	0.374	high
402	5	36	0	auto	0.5	0.516701	yellow	1	up	up	GLO	right	close	1	intact	intact	1bfb8d40-5675-4acc-87b4-a7f11b6242ea_fps_avg_aud.mp4	1	0	0.612818	0	1	left	yellow	1	0.384	high
402	5	37	0	auto	0.5	0.516669	blue	0	up	up	GLO	right	close	1	intact	intact	15914fca-fb16-47ce-929a-161ca2c1fdf7_fps_avg_aud.mp4	1	0	1.11083	0	1	up	blue	1	0.394	high
402	5	38	0	auto	0.5	0.517223	yellow	1	up	up	GLO	left	far	0	intact	none	none	0	0	0.716632	0	1	left	yellow	1	0.404	high
402	5	39	0	auto	0.5	0.516452	yellow	0	left	left	GLO	right	close	0	intact	none	none	0	0	0.533424	0	1	left	yellow	1	0.414	high
402	5	40	0	auto	0.5	0.516349	green	1	down	down	GLO	left	far	1	intact	intact	c5792f9d-c420-493b-acf2-46528babd08c_fps_avg_aud.mp4	1	0	0.812348	0	1	right	green	1	0.424	high
402	5	41	0	auto	0.5	0.517404	yellow	1	right	right	GLO	left	close	0	intact	none	none	0	0	0.650105	0	1	left	yellow	1	0.434	high
402	5	42	0	auto	0.5	0.516949	red	1	right	right	GLO	right	far	0	intact	none	none	0	0	0.650039	0	1	down	red	1	0.444	high
402	5	43	0	auto	0.5	0.517603	green	0	right	right	GLO	left	close	1	intact	intact	10969b38-242c-4207-88e8-6564613d4d88(1)_fps_avg_aud.mp4	1	0	1.62116	0	1	right	green	1	0.454	high
402	5	44	0	auto	0.5	0.516046	blue	0	up	up	GLO	left	far	1	intact	intact	September_2016_(3)_fps_avg_aud.mp4	1	0	0.681398	0	1	up	blue	1	0.464	high
402	5	45	0	auto	0.5	0.516525	yellow	0	left	left	GLO	left	close	1	intact	intact	Dec13_fps_avg_aud.mp4	1	0	0.583735	0	1	left	yellow	1	0.474	high
402	5	46	0	auto	0.5	0.515821	yellow	1	up	up	GLO	left	close	1	intact	intact	8021b6b2-93f5-4b8a-981e-576768624e6e_fps_avg_aud.mp4	1	0	0.634372	0	1	left	yellow	1	0.484	high
402	5	47	0	auto	0.5	0.51597	blue	0	up	up	GLO	left	far	0	intact	none	none	0	0	0.551079	0	1	up	blue	1	0.494	high
402	5	48	0	auto	0.5	0.516106	green	0	right	right	GLO	left	close	0	intact	none	none	0	0	0.666067	0	1	right	green	1	0.504	high
402	5	49	0	auto	0.5	NaN	red	1	right	right	GLO	none	far	1	intact	intact	e3992607-d25b-430c-bd18-12cb4a6d1b28_fps_avg_aud.mp4	0	0	NaN	NaN	NaN	none	none	NaN	0.504	high
402	5	50	0	auto	0.5	NaN	green	1	left	left	GLO	none	close	1	intact	intact	ea69ea96-da66-4080-96c0-6671ca9fd051_fps_avg_aud.mp4	0	0	NaN	NaN	NaN	none	none	NaN	0.504	high
402	5	51	0	auto	0.5	NaN	blue	0	up	up	GLO	none	far	1	intact	intact	1b336470-7a10-4cc7-aee4-3a5e6e6e551e_fps_avg_aud.mp4	0	0	NaN	NaN	NaN	none	none	NaN	0.504	high
402	5	52	0	auto	0.5	NaN	green	1	left	left	GLO	none	close	1	intact	intact	7c00c850-e528-473f-895e-ee9be83c7963_fps_avg_aud.mp4	0	0	NaN	NaN	NaN	none	none	NaN	0.504	high
402	5	53	0	auto	0.5	NaN	yellow	0	left	left	GLO	none	far	1	intact	intact	b2f11719-a2c9-405c-93a2-abd13a835201_fps_avg_aud.mp4	0	0	NaN	NaN	NaN	none	none	NaN	0.504	high
402	5	54	0	auto	0.5	NaN	green	1	left	left	GLO	none	close	1	intact	intact	Jan20_fps_avg_aud.mp4	0	0	NaN	NaN	NaN	none	none	NaN	0.504	high
402	5	55	0	auto	0.5	NaN	red	1	left	left	GLO	none	close	1	intact	intact	c3c668bd-3353-4887-b3ff-6d0225f5629c_fps_avg_aud.mp4	0	0	NaN	NaN	NaN	none	none	NaN	0.504	high
402	5	56	0	auto	0.5	NaN	green	0	right	right	GLO	none	far	0	intact	none	none	0	0	NaN	NaN	NaN	none	none	NaN	0.504	high
402	5	57	0	auto	0.5	NaN	green	1	down	down	GLO	none	far	1	intact	intact	838aaec1-d86d-4006-a165-4cb3e5f6444b_fps_avg_aud.mp4	0	0	NaN	NaN	NaN	none	none	NaN	0.504	high
402	5	58	0	auto	0.5	NaN	green	1	left	left	GLO	none	far	0	intact	none	none	0	0	NaN	NaN	NaN	none	none	NaN	0.504	high
402	5	59	0	auto	0.5	NaN	blue	1	down	down	GLO	none	far	1	intact	intact	9e99d645-5200-4298-9c0f-4a18ab570a6d_fps_avg_aud.mp4	0	0	NaN	NaN	NaN	none	none	NaN	0.504	high
402	5	60	0	auto	0.5	NaN	yellow	1	up	up	GLO	none	far	1	intact	intact	9bd7a199-78f1-4f14-9fde-3a11c0ebd236_fps_avg_aud.mp4	0	0	NaN	NaN	NaN	none	none	NaN	0.504	high
402	5	61	0	auto	0.5	NaN	red	0	down	down	GLO	none	far	1	intact	intact	January_2016_fps_avg_aud.mp4	0	0	NaN	NaN	NaN	none	none	NaN	0.504	high
402	5	62	0	auto	0.5	NaN	green	1	left	left	GLO	none	far	0	intact	none	none	0	0	NaN	NaN	NaN	none	none	NaN	0.504	high
402	5	63	0	auto	0.5	NaN	green	0	right	right	GLO	none	far	0	intact	none	none	0	0	NaN	NaN	NaN	none	none	NaN	0.504	high
402	5	64	0	auto	0.5	NaN	blue	0	up	up	GLO	none	far	1	intact	intact	2016_fps_avg_aud.mp4	0	0	NaN	NaN	NaN	none	none	NaN	0.504	high
402	5	65	0	auto	0.5	NaN	green	1	left	left	GLO	none	close	1	intact	intact	Aug11_fps_avg_aud.mp4	0	0	NaN	NaN	NaN	none	none	NaN	0.504	high
402	5	66	0	auto	0.5	NaN	green	0	right	right	GLO	none	far	1	intact	intact	May27_fps_avg_aud.mp4	0	0	NaN	NaN	NaN	none	none	NaN	0.504	high
402	5	67	0	auto	0.5	NaN	red	0	down	down	GLO	none	close	1	intact	intact	a066c606-67e2-4c5d-b13d-471a21a18633_fps_avg_aud.mp4	0	0	NaN	NaN	NaN	none	none	NaN	0.504	high
402	5	68	0	auto	0.5	NaN	yellow	1	up	up	GLO	none	far	0	intact	none	none	0	0	NaN	NaN	NaN	none	none	NaN	0.504	high
402	5	69	0	auto	0.5	NaN	yellow	1	down	down	GLO	none	far	0	intact	none	none	0	0	NaN	NaN	NaN	none	none	NaN	0.504	high
402	5	70	0	auto	0.5	NaN	red	0	down	down	GLO	none	far	1	intact	intact	43373659-2842-4fad-950a-4472afef2f38_fps_avg_aud.mp4	0	0	NaN	NaN	NaN	none	none	NaN	0.504	high
402	5	71	0	auto	0.5	NaN	yellow	0	left	left	GLO	none	far	1	intact	intact	cc0b25a9-3d1b-4c67-b1c5-5f27d60e59cb_fps_avg_aud.mp4	0	0	NaN	NaN	NaN	none	none	NaN	0.504	high
402	5	72	0	auto	0.5	NaN	red	1	up	up	GLO	none	far	0	intact	none	none	0	0	NaN	NaN	NaN	none	none	NaN	0.504	high
402	5	73	0	auto	0.5	NaN	yellow	0	left	left	GLO	none	close	0	intact	none	none	0	0	NaN	NaN	NaN	none	none	NaN	0.504	high
402	5	74	0	auto	0.5	NaN	green	1	down	down	GLO	none	far	1	intact	intact	September_2016_fps_avg_aud.mp4	0	0	NaN	NaN	NaN	none	none	NaN	0.504	high
402	5	75	0	auto	0.5	NaN	yellow	1	right	right	GLO	none	close	1	intact	intact	May11_fps_avg_aud.mp4	0	0	NaN	NaN	NaN	none	none	NaN	0.504	high
402	5	76	0	auto	0.5	NaN	green	0	right	right	GLO	none	close	1	intact	intact	d908683d-e7f6-43aa-ac1d-27222b281fc0_fps_avg_aud.mp4	0	0	NaN	NaN	NaN	none	none	NaN	0.504	high
402	5	77	0	auto	0.5	NaN	yellow	0	left	left	GLO	none	far	1	intact	intact	b70b2fc0-8728-4c47-a0fd-a887a904f1ee_fps_avg_aud.mp4	0	0	NaN	NaN	NaN	none	none	NaN	0.504	high
402	5	78	0	auto	0.5	NaN	green	0	right	right	GLO	none	close	1	intact	intact	e57a35d6-39b7-4b9c-a4a1-844e0bebd3c1_fps_avg_aud.mp4	0	0	NaN	NaN	NaN	none	none	NaN	0.504	high
402	5	79	0	auto	0.5	NaN	red	1	left	left	GLO	none	close	1	intact	intact	f8f9d4f8-9aad-49b0-8b1c-ddf47286d601_fps_avg_aud.mp4	0	0	NaN	NaN	NaN	none	none	NaN	0.504	high
402	5	80	0	auto	0.5	NaN	yellow	1	right	right	GLO	none	far	1	intact	intact	5e28083f-f416-4168-bfde-2e1ddfaaf60e_fps_avg_aud.mp4	0	0	NaN	NaN	NaN	none	none	NaN	0.504	high
402	5	81	0	auto	0.5	NaN	yellow	1	right	right	GLO	none	close	1	intact	intact	5901a51f-f684-46c5-8a4f-abc4c05199d0_fps_avg_aud.mp4	0	0	NaN	NaN	NaN	none	none	NaN	0.504	high
402	5	82	0	auto	0.5	NaN	yellow	1	down	down	GLO	none	close	0	intact	none	none	0	0	NaN	NaN	NaN	none	none	NaN	0.504	high
402	5	83	0	auto	0.5	NaN	green	1	left	left	GLO	none	close	1	intact	intact	Nov25_fps_avg_aud.mp4	0	0	NaN	NaN	NaN	none	none	NaN	0.504	high
402	5	84	0	auto	0.5	NaN	yellow	1	right	right	GLO	none	close	1	intact	intact	c79830e0-a78a-415b-b7be-95bf79fe1a3a_fps_avg_aud.mp4	0	0	NaN	NaN	NaN	none	none	NaN	0.504	high
402	5	85	0	auto	0.5	NaN	red	0	down	down	GLO	none	far	1	intact	intact	16fe28b7-019b-49e7-9b4b-6b9fba85fe3d_fps_avg_aud.mp4	0	0	NaN	NaN	NaN	none	none	NaN	0.504	high
402	5	86	0	auto	0.5	NaN	red	0	down	down	GLO	none	close	0	intact	none	none	0	0	NaN	NaN	NaN	none	none	NaN	0.504	high
402	5	87	0	auto	0.5	NaN	yellow	0	left	left	GLO	none	close	1	intact	intact	339eedaf-ff90-439f-b68a-797258b27c12_fps_avg_aud.mp4	0	0	NaN	NaN	NaN	none	none	NaN	0.504	high
402	5	88	0	auto	0.5	NaN	green	1	up	up	GLO	none	far	1	intact	intact	0f23035e-0077-49bd-b516-950aa27b63b5_fps_avg_aud.mp4	0	0	NaN	NaN	NaN	none	none	NaN	0.504	high
402	5	89	0	auto	0.5	NaN	red	1	left	left	GLO	none	far	0	intact	none	none	0	0	NaN	NaN	NaN	none	none	NaN	0.504	high
402	5	90	0	auto	0.5	NaN	green	0	right	right	GLO	none	close	1	intact	intact	Jnauary_2016_fps_avg_aud.mp4	0	0	NaN	NaN	NaN	none	none	NaN	0.504	high
402	5	91	0	auto	0.5	NaN	yellow	1	up	up	GLO	none	close	0	intact	none	none	0	0	NaN	NaN	NaN	none	none	NaN	0.504	high
402	5	92	0	auto	0.5	NaN	green	1	left	left	GLO	none	far	1	intact	intact	4db3f410-b7dd-4157-a876-374c50f0a479_fps_avg_aud.mp4	0	0	NaN	NaN	NaN	none	none	NaN	0.504	high
402	5	93	0	auto	0.5	NaN	yellow	1	right	right	GLO	none	far	0	intact	none	none	0	0	NaN	NaN	NaN	none	none	NaN	0.504	high
402	6	1	0	self	0.5	0.51679	yellow	0	left	left	GLO	right	far	1	intact	intact	January_10_2016_fps_avg_aud.mp4	0	0	0.80049	0	1	left	yellow	1	0.505	low
402	6	2	0	self	0.5	0.516734	green	1	down	down	GLO	left	close	1	intact	intact	7fe27e44-a1be-4335-89c2-e510e239df64_fps_avg_aud.mp4	0	0	0.866259	0	1	right	green	1	0.506	low
402	6	3	0	self	0.5	0.516504	red	1	left	left	GLO	left	far	1	intact	intact	8e8c5e28-7fba-491b-88f9-891e8e26ddbd_fps_avg_aud.mp4	1	169	3.12486	0.621933	4	down	red	1	0.507	low
402	6	4	0	self	0.5	0.516466	blue	0	up	up	GLO	right	close	1	intact	intact	December_2015_fps_avg_aud.mp4	0	0	0.768006	0	1	up	blue	1	0.508	low
402	6	5	0	self	0.5	0.516969	yellow	1	up	up	GLO	left	far	1	intact	intact	ae961612-f052-4542-a69c-195487c48d51_fps_avg_aud.mp4	0	0	0.800098	0	1	left	yellow	1	0.509	low
402	6	6	0	self	0.5	0.515972	yellow	0	left	left	GLO	right	far	1	intact	intact	a36f5f1c-60eb-41c0-8ed1-09a4e01342bc_fps_avg_aud.mp4	0	0	0.583654	0	1	left	yellow	1	0.51	low
402	6	7	0	self	0.5	0.516814	red	1	right	right	GLO	left	far	1	intact	intact	fdcb9b5f-28c7-4da4-867c-57e1763a716c_fps_avg_aud.mp4	0	0	0.68323	0	1	down	red	1	0.511	low
402	6	8	0	self	0.5	0.51644	blue	1	down	down	GLO	right	far	1	intact	intact	bbadcc83-10bb-4a2d-a28a-1d6b44f33770_fps_avg_aud.mp4	0	0	0.917851	0	1	up	blue	1	0.512	low
402	6	9	0	self	0.5	0.516413	blue	0	up	up	GLO	right	far	1	intact	intact	Nov28_fps_avg_aud.mp4	0	0	0.616703	0	1	up	blue	1	0.513	low
402	6	10	0	self	0.5	0.516815	green	1	left	left	GLO	left	far	1	intact	intact	f5740bdb-f6a7-4842-9fa8-065f8eed57f4_fps_avg_aud.mp4	0	0	0.766552	0	1	right	green	1	0.514	low
402	6	11	0	self	0.5	0.516085	yellow	0	left	left	GLO	right	close	1	intact	intact	Nmarch1222015_fps_avg_aud.mp4	0	0	0.666638	0	1	left	yellow	1	0.515	low
402	6	12	0	self	0.5	0.515949	blue	0	up	up	GLO	left	close	1	intact	intact	Jun8_fps_avg_aud.mp4	0	0	1.65073	0	1	up	blue	1	0.516	low
402	6	13	0	self	0.5	0.517246	red	1	right	right	GLO	left	close	1	intact	intact	Dec12_fps_avg_aud.mp4	0	0	0.666875	0	1	down	red	1	0.517	low
402	6	14	0	self	0.5	0.516239	blue	0	up	up	GLO	left	far	1	intact	intact	Jan31_fps_avg_aud.mp4	0	0	0.593074	0	1	up	blue	1	0.518	low
402	6	15	0	self	0.5	0.516218	blue	0	up	up	GLO	right	close	1	intact	intact	bb75a9e7-75e9-4641-8e0c-ecaabf7a7e69(1)_fps_avg_aud.mp4	0	0	0.607649	0	1	up	blue	1	0.519	low
402	6	16	0	self	0.5	0.516517	green	0	right	right	GLO	right	close	1	intact	intact	8fc730b2-0fc1-4125-9e0e-c9ed1f9ab58a_fps_avg_aud.mp4	0	0	0.650724	0	1	right	green	1	0.52	low
402	6	17	0	self	0.5	0.516729	yellow	1	up	up	GLO	right	far	1	intact	intact	b1dabac3-204f-4571-b892-69eb87e805d0_fps_avg_aud.mp4	0	0	0.566814	0	1	left	yellow	1	0.521	low
402	6	18	0	self	0.5	0.516499	yellow	0	left	left	GLO	right	close	1	intact	intact	Jan10_fps_avg_aud.mp4	0	0	0.699908	0	1	left	yellow	1	0.522	low
402	6	19	0	self	0.5	0.516197	blue	1	down	down	GLO	right	close	1	intact	intact	3787d5d7-bc65-4720-b93c-344c8ca85f75_fps_avg_aud.mp4	0	0	0.649752	0	1	up	blue	1	0.523	low
402	6	20	0	self	0.5	0.517173	green	0	right	right	GLO	left	close	1	intact	intact	Mar25_fps_avg_aud.mp4	0	0	0.633081	0	1	right	green	1	0.524	low
402	6	21	0	self	0.5	0.516682	green	0	right	right	GLO	right	far	1	intact	intact	b70b2fc0-8728-4c47-a0fd-a887a904f1ee_fps_avg_aud.mp4	0	0	0.734076	0	1	right	green	1	0.525	low
402	6	22	0	self	0.5	0.517095	green	0	right	right	GLO	left	far	1	intact	intact	a390325a-c9a6-4240-9459-3271767e2980_fps_avg_aud.mp4	0	0	0.583762	0	1	right	green	1	0.526	low
402	6	23	0	self	0.5	0.516869	blue	1	down	down	GLO	right	far	1	intact	intact	Jnauary_2016_fps_avg_aud.mp4	0	0	0.633943	0	1	up	blue	1	0.527	low
402	6	24	0	self	0.5	0.517335	blue	0	up	up	GLO	left	far	1	intact	intact	July21_fps_avg_aud.mp4	0	0	0.632852	0	1	up	blue	1	0.528	low
402	6	25	0	self	0.5	0.517371	blue	0	up	up	GLO	left	far	1	intact	intact	March25_2016_fps_avg_aud.mp4	0	0	0.566996	0	1	up	blue	1	0.529	low
402	6	26	0	self	0.5	0.516801	green	0	right	right	GLO	right	far	1	intact	intact	Feb14_fps_avg_aud.mp4	0	0	0.599856	0	1	right	green	1	0.53	low
402	6	27	0	self	0.5	0.517089	blue	0	up	up	GLO	left	far	1	intact	intact	May27_fps_avg_aud.mp4	0	0	0.549514	0	1	up	blue	1	0.531	low
402	6	28	0	self	0.5	0.516729	green	0	right	right	GLO	right	far	1	intact	intact	1fd9b798-493d-4dfc-a8df-678bad207055_fps_avg_aud.mp4	0	0	0.583853	0	1	right	green	1	0.532	low
402	6	29	0	self	0.5	0.516719	yellow	1	down	down	GLO	right	close	1	intact	intact	August_2016_fps_avg_aud.mp4	0	0	0.700074	0	1	left	yellow	1	0.533	low
402	6	30	0	self	0.5	0.517311	green	1	up	up	GLO	right	far	1	intact	intact	37d023e5-2b94-437c-b04e-88100eb5850b_fps_avg_aud.mp4	0	0	0.833309	0	1	right	green	1	0.534	low
402	6	31	0	self	0.5	0.517153	red	0	down	down	GLO	right	close	1	intact	intact	d4f25bdd-9060-452d-8b9a-299b4d79a939_fps_avg_aud.mp4	0	0	0.683939	0	1	down	red	1	0.535	low
402	6	32	0	self	0.5	0.51575	green	1	left	left	GLO	right	close	1	intact	intact	5e28083f-f416-4168-bfde-2e1ddfaaf60e_fps_avg_aud.mp4	0	0	1.51791	0	1	right	green	1	0.536	low
402	6	33	0	self	0.5	0.516536	blue	0	up	up	GLO	right	far	1	intact	intact	b8f7a383-ba3e-49db-977d-18cbd8702864_fps_avg_aud.mp4	0	0	1.0666	0	1	up	blue	1	0.537	low
402	6	34	0	self	0.5	0.51661	blue	1	right	right	GLO	right	far	1	intact	intact	2ad8c2cc-f109-45c5-925b-f1af257730e3_fps_avg_aud.mp4	0	0	1.01692	0	1	up	blue	1	0.538	low
402	6	35	0	self	0.5	0.516394	yellow	1	right	right	GLO	left	far	1	intact	intact	79c2a399-1c19-4b6a-a7be-ad19cd183d03_fps_avg_aud.mp4	0	0	1.61609	0	1	left	yellow	1	0.539	low
402	6	36	0	self	0.5	0.516104	red	0	down	down	GLO	left	far	1	intact	intact	01eb0290-d17b-4697-b87a-733d1ecfc12d_fps_avg_aud.mp4	0	0	0.850529	0	1	down	red	1	0.54	low
402	6	37	0	self	0.5	0.516695	green	1	up	up	GLO	left	far	1	intact	intact	0ab2bdff-924c-46d2-b610-671d6f4f673e_fps_avg_aud.mp4	0	0	0.747985	0	1	right	green	1	0.541	low
402	6	38	0	self	0.5	0.517097	green	1	left	left	GLO	right	far	1	intact	intact	f08bb9b7-0409-482c-9084-de15481ab2b3_fps_avg_aud.mp4	0	0	0.633129	0	1	right	green	1	0.542	low
402	6	39	0	self	0.5	0.517073	blue	1	left	left	GLO	right	far	1	intact	intact	Aug17_fps_avg_aud.mp4	0	0	0.733576	0	1	up	blue	1	0.543	low
402	6	40	0	self	0.5	0.516795	yellow	0	left	left	GLO	right	close	1	intact	intact	326ee18c-0cd5-4c39-ac0f-082f53449aa4_fps_avg_aud.mp4	0	0	0.634974	0	1	left	yellow	1	0.544	low
402	6	41	0	self	0.5	0.51618	yellow	1	down	down	GLO	right	far	1	intact	intact	june_19_2015_fps_avg_aud.mp4	0	0	0.699719	0	1	left	yellow	1	0.545	low
402	6	42	0	self	0.5	0.516215	yellow	0	left	left	GLO	left	far	1	intact	intact	Feb7_fps_avg_aud.mp4	0	0	0.533962	0	1	left	yellow	1	0.546	low
402	6	43	0	self	0.5	0.515932	red	1	left	left	GLO	right	far	1	intact	intact	Nov6_fps_avg_aud.mp4	0	0	0.66556	0	1	down	red	1	0.547	low
402	6	44	0	self	0.5	0.516854	green	1	down	down	GLO	right	close	1	intact	intact	8131cc16-56a9-45d8-8dab-20ead5938e0a_fps_avg_aud.mp4	0	0	2.74973	0	1	right	green	1	0.548	low
402	6	45	0	self	0.5	NaN	red	1	left	left	GLO	none	far	1	intact	intact	23c8ed33-90c4-4605-8822-6270c3a6ca34_fps_avg_aud.mp4	0	0	NaN	NaN	NaN	none	none	NaN	0.548	low
402	6	46	0	self	0.5	NaN	blue	0	up	up	GLO	none	close	1	intact	intact	226bfd42-14d0-45a1-82ba-233f4ddec70a_fps_avg_aud.mp4	0	0	NaN	NaN	NaN	none	none	NaN	0.548	low
402	6	47	0	self	0.5	NaN	red	0	down	down	GLO	none	close	1	intact	intact	Dec23_fps_avg_aud.mp4	0	0	NaN	NaN	NaN	none	none	NaN	0.548	low
402	6	48	0	self	0.5	NaN	green	0	right	right	GLO	none	close	1	intact	intact	Febraury_2016_fps_avg_aud.mp4	0	0	NaN	NaN	NaN	none	none	NaN	0.548	low
402	6	49	0	self	0.5	NaN	green	0	right	right	GLO	none	far	1	intact	intact	d021cb9c-36bf-48fb-9474-23511a956f6a_fps_avg_aud.mp4	0	0	NaN	NaN	NaN	none	none	NaN	0.548	low
402	6	50	0	self	0.5	NaN	green	0	right	right	GLO	none	close	1	intact	intact	c6481c95-a5c1-4e4c-bc78-4d2184182dd4_fps_avg_aud.mp4	0	0	NaN	NaN	NaN	none	none	NaN	0.548	low
402	6	51	0	self	0.5	NaN	green	1	down	down	GLO	none	close	1	intact	intact	Oct1_fps_avg_aud.mp4	0	0	NaN	NaN	NaN	none	none	NaN	0.548	low
402	6	52	0	self	0.5	NaN	blue	0	up	up	GLO	none	far	1	intact	intact	Jul10_fps_avg_aud.mp4	0	0	NaN	NaN	NaN	none	none	NaN	0.548	low
402	6	53	0	self	0.5	NaN	green	1	left	left	GLO	none	close	1	intact	intact	801d308b-7fe8-4a7f-8ad6-dafa42c9e3af_fps_avg_aud.mp4	0	0	NaN	NaN	NaN	none	none	NaN	0.548	low
402	6	54	0	self	0.5	NaN	red	1	left	left	GLO	none	close	1	intact	intact	9c75459a-7dcd-444e-93fd-b229653b8169_fps_avg_aud.mp4	0	0	NaN	NaN	NaN	none	none	NaN	0.548	low
402	6	55	0	self	0.5	NaN	yellow	1	down	down	GLO	none	far	1	intact	intact	4d617426-ab8c-4125-9dcf-178529ca54a1_fps_avg_aud.mp4	0	0	NaN	NaN	NaN	none	none	NaN	0.548	low
402	6	56	0	self	0.5	NaN	red	1	right	right	GLO	none	close	1	intact	intact	Nov1_fps_avg_aud.mp4	0	0	NaN	NaN	NaN	none	none	NaN	0.548	low
402	6	57	0	self	0.5	NaN	red	1	right	right	GLO	none	far	1	intact	intact	Apr2_fps_avg_aud.mp4	0	0	NaN	NaN	NaN	none	none	NaN	0.548	low
402	6	58	0	self	0.5	NaN	green	0	right	right	GLO	none	far	1	intact	intact	July3_fps_avg_aud.mp4	0	0	NaN	NaN	NaN	none	none	NaN	0.548	low
402	6	59	0	self	0.5	NaN	yellow	0	left	left	GLO	none	far	1	intact	intact	Apr13_fps_avg_aud.mp4	0	0	NaN	NaN	NaN	none	none	NaN	0.548	low
402	6	60	0	self	0.5	NaN	red	0	down	down	GLO	none	far	1	intact	intact	Otober_11_2016_fps_avg_aud.mp4	0	0	NaN	NaN	NaN	none	none	NaN	0.548	low
402	6	61	0	self	0.5	NaN	yellow	1	down	down	GLO	none	far	1	intact	intact	June_2016_(1)_fps_avg_aud.mp4	0	0	NaN	NaN	NaN	none	none	NaN	0.548	low
402	6	62	0	self	0.5	NaN	red	1	right	right	GLO	none	far	1	intact	intact	f88c90ff-41f4-4220-a305-426fa931932f_fps_avg_aud.mp4	0	0	NaN	NaN	NaN	none	none	NaN	0.548	low
402	6	63	0	self	0.5	NaN	red	0	down	down	GLO	none	far	1	intact	intact	9bd7a199-78f1-4f14-9fde-3a11c0ebd236_fps_avg_aud.mp4	0	0	NaN	NaN	NaN	none	none	NaN	0.548	low
402	6	64	0	self	0.5	NaN	blue	0	up	up	GLO	none	close	1	intact	intact	591cd28e-3b15-449a-b19f-e2e7cabcd7ba_fps_avg_aud.mp4	0	0	NaN	NaN	NaN	none	none	NaN	0.548	low
402	6	65	0	self	0.5	NaN	red	1	left	left	GLO	none	far	1	intact	intact	639855c9-f7b0-4d31-8ca6-c12b36f03058_fps_avg_aud.mp4	0	0	NaN	NaN	NaN	none	none	NaN	0.548	low
402	6	66	0	self	0.5	NaN	green	0	right	right	GLO	none	close	1	intact	intact	June_2016_fps_avg_aud.mp4	0	0	NaN	NaN	NaN	none	none	NaN	0.548	low
402	6	67	0	self	0.5	NaN	red	1	right	right	GLO	none	far	1	intact	intact	10110e03-827e-4196-8676-097b68a947cd_fps_avg_aud.mp4	0	0	NaN	NaN	NaN	none	none	NaN	0.548	low
402	6	68	0	self	0.5	NaN	blue	1	left	left	GLO	none	close	1	intact	intact	may_25_2015_fps_avg_aud.mp4	0	0	NaN	NaN	NaN	none	none	NaN	0.548	low
402	6	69	0	self	0.5	NaN	yellow	1	right	right	GLO	none	close	1	intact	intact	b4d84d1f-224c-4414-9045-0f7e4fc94012_fps_avg_aud.mp4	0	0	NaN	NaN	NaN	none	none	NaN	0.548	low
402	6	70	0	self	0.5	NaN	green	0	right	right	GLO	none	far	1	intact	intact	cc0b25a9-3d1b-4c67-b1c5-5f27d60e59cb_fps_avg_aud.mp4	0	0	NaN	NaN	NaN	none	none	NaN	0.548	low
402	6	71	0	self	0.5	NaN	green	1	down	down	GLO	none	far	1	intact	intact	August_2016_(1)_fps_avg_aud.mp4	0	0	NaN	NaN	NaN	none	none	NaN	0.548	low
402	6	72	0	self	0.5	NaN	green	1	down	down	GLO	none	far	1	intact	intact	Sep19_fps_avg_aud.mp4	0	0	NaN	NaN	NaN	none	none	NaN	0.548	low
402	6	73	0	self	0.5	NaN	yellow	0	left	left	GLO	none	far	1	intact	intact	fc2af016-0a80-4148-823b-d9176c33cf3a_fps_avg_aud.mp4	0	0	NaN	NaN	NaN	none	none	NaN	0.548	low
402	6	74	0	self	0.5	NaN	blue	0	up	up	GLO	none	close	1	intact	intact	caf1693c-0eef-47ff-aee9-5348af86759e_fps_avg_aud.mp4	0	0	NaN	NaN	NaN	none	none	NaN	0.548	low
402	6	75	0	self	0.5	NaN	yellow	0	left	left	GLO	none	far	1	intact	intact	030a135d-605a-42ea-902a-469aeded471a_fps_avg_aud.mp4	0	0	NaN	NaN	NaN	none	none	NaN	0.548	low
402	6	76	0	self	0.5	NaN	green	0	right	right	GLO	none	close	1	intact	intact	92171dfa-1474-4f0d-8c37-ab1d226fa154(1)_fps_avg_aud.mp4	0	0	NaN	NaN	NaN	none	none	NaN	0.548	low
402	6	77	0	self	0.5	NaN	blue	1	left	left	GLO	none	far	1	intact	intact	023396f6-bdb5-478d-a725-e32d4f6b7be9_fps_avg_aud.mp4	0	0	NaN	NaN	NaN	none	none	NaN	0.548	low
402	6	78	0	self	0.5	NaN	yellow	1	down	down	GLO	none	far	1	intact	intact	16fe28b7-019b-49e7-9b4b-6b9fba85fe3d_fps_avg_aud.mp4	0	0	NaN	NaN	NaN	none	none	NaN	0.548	low
402	6	79	0	self	0.5	NaN	red	0	down	down	GLO	none	far	1	intact	intact	0602c0a8-082a-4bca-9f5b-70795017698f_fps_avg_aud.mp4	0	0	NaN	NaN	NaN	none	none	NaN	0.548	low
402	6	80	0	self	0.5	NaN	yellow	1	right	right	GLO	none	far	1	intact	intact	1affd9f8-27af-4e8b-9985-5f3abbee6931_fps_avg_aud.mp4	0	0	NaN	NaN	NaN	none	none	NaN	0.548	low
402	6	81	0	self	0.5	NaN	yellow	1	right	right	GLO	none	far	1	intact	intact	Dec27_fps_avg_aud.mp4	0	0	NaN	NaN	NaN	none	none	NaN	0.548	low
402	6	82	0	self	0.5	NaN	red	1	left	left	GLO	none	far	1	intact	intact	179d3911-04f4-4680-91c3-2515ed1f3cc4_fps_avg_aud.mp4	0	0	NaN	NaN	NaN	none	none	NaN	0.548	low
402	6	83	0	self	0.5	NaN	blue	0	up	up	GLO	none	close	1	intact	intact	Mar8_fps_avg_aud.mp4	0	0	NaN	NaN	NaN	none	none	NaN	0.548	low
402	6	84	0	self	0.5	NaN	yellow	1	right	right	GLO	none	far	1	intact	intact	Feb19_fps_avg_aud.mp4	0	0	NaN	NaN	NaN	none	none	NaN	0.548	low
402	6	85	0	self	0.5	NaN	blue	0	up	up	GLO	none	far	1	intact	intact	jun14_fps_avg_aud.mp4	0	0	NaN	NaN	NaN	none	none	NaN	0.548	low
402	6	86	0	self	0.5	NaN	red	1	up	up	GLO	none	far	1	intact	intact	Oct31_fps_avg_aud.mp4	0	0	NaN	NaN	NaN	none	none	NaN	0.548	low
402	6	87	0	self	0.5	NaN	blue	1	down	down	GLO	none	far	1	intact	intact	7b9f55fa-3ddf-4c84-bb13-2413d53cbf75_fps_avg_aud.mp4	0	0	NaN	NaN	NaN	none	none	NaN	0.548	low
402	6	88	0	self	0.5	NaN	blue	1	right	right	GLO	none	close	1	intact	intact	May_2016_fps_avg_aud.mp4	0	0	NaN	NaN	NaN	none	none	NaN	0.548	low
402	6	89	0	self	0.5	NaN	green	0	right	right	GLO	none	close	1	intact	intact	fa34c2a5-d3e2-4d1e-914f-e40c92a49120_fps_avg_aud.mp4	0	0	NaN	NaN	NaN	none	none	NaN	0.548	low
402	6	90	0	self	0.5	NaN	blue	1	left	left	GLO	none	far	1	intact	intact	647890e0-5689-43cf-86ab-b37e61076130_fps_avg_aud.mp4	0	0	NaN	NaN	NaN	none	none	NaN	0.548	low
402	6	91	0	self	0.5	NaN	green	1	left	left	GLO	none	close	1	intact	intact	99e5912a-fa6d-43dc-a1df-f887e6ef8a00_fps_avg_aud.mp4	0	0	NaN	NaN	NaN	none	none	NaN	0.548	low
402	6	92	0	self	0.5	NaN	green	0	right	right	GLO	none	close	1	intact	intact	deff750b-b4a4-440e-a47d-eb4c56f93a9d_fps_avg_aud.mp4	0	0	NaN	NaN	NaN	none	none	NaN	0.548	low
402	6	93	0	self	0.5	NaN	red	0	down	down	GLO	none	close	1	intact	intact	4492b756-14ac-4694-8c38-fa7503b864e1_fps_avg_aud.mp4	0	0	NaN	NaN	NaN	none	none	NaN	0.548	low
402	7	1	0	self	0.5	0.517103	green	0	right	right	GLO	left	close	1	intact	intact	17cc3183-9fa6-42da-8814-3bcbf562eceb_fps_avg_aud.mp4	0	0	1.0344	0	1	right	green	1	0.558	high
402	7	2	0	self	0.5	0.516251	green	1	up	up	GLO	left	far	1	intact	intact	3787d5d7-bc65-4720-b93c-344c8ca85f75_fps_avg_aud.mp4	0	0	1.01713	0	1	right	green	1	0.568	high
402	7	3	0	self	0.5	0.517226	green	1	left	left	GLO	right	far	1	intact	intact	9df4c83d-45cc-4501-be4d-279a04192ba4_fps_avg_aud.mp4	0	0	0.684523	0	1	right	green	1	0.578	high
402	7	4	0	self	0.5	0.517363	green	1	up	up	GLO	left	close	1	intact	intact	Apr7_fps_avg_aud.mp4	0	0	0.683347	0	1	right	green	1	0.588	high
402	7	5	0	self	0.5	0.515674	blue	1	down	down	GLO	right	close	1	intact	intact	cfde3402-3742-4dda-82a3-7c69c497e0f8_fps_avg_aud.mp4	0	0	0.833962	0	1	up	blue	1	0.598	high
402	7	6	0	self	0.5	0.516261	green	0	right	right	GLO	right	far	1	intact	intact	March_15_2016_fps_avg_aud.mp4	0	0	0.717002	0	1	right	green	1	0.608	high
402	7	7	0	self	0.5	0.51634	green	0	right	right	GLO	right	far	1	intact	intact	af0fa101-699c-45fe-9ac0-b3a3d283604b_fps_avg_aud.mp4	0	0	0.629914	0	1	right	green	1	0.618	high
