ID	Block	Trials	Practice	VideoStart	ITI	ITI_measured	Color	Conflict	Global	Local	Task	Video_pos	Video_dist	Video_present	Video_cat_cond	Video_cat	Video	VideoPlayed	VideoCheck	RT	DT	Visits	KeyPress	KeyColor	Correct	Reward	RewardCond
404	1	1	1	none	0.5	0.492864	green	1	down	down	GLO	right	far	0	intact	none	none	0	0	1.09549	0	1	right	green	1	0	0
404	1	2	1	none	0.5	0.517011	yellow	0	left	left	GLO	left	close	0	intact	none	none	0	0	0.832389	0	1	left	yellow	1	0	0
404	1	3	1	none	0.5	0.516318	green	0	right	right	GLO	left	far	0	intact	none	none	0	0	0.711249	0	1	right	green	1	0	0
404	1	4	1	none	0.5	0.5159	red	1	up	up	GLO	right	far	0	intact	none	none	0	0	1.38086	0	1	up	blue	0	0	0
404	1	5	1	none	0.5	0.5167	red	0	down	down	GLO	right	close	0	intact	none	none	0	0	0.984251	0	1	up	blue	0	0	0
404	1	6	1	none	0.5	0.51666	red	1	right	right	GLO	left	close	0	intact	none	none	0	0	0.725153	0	1	up	blue	0	0	0
404	1	7	1	none	0.5	0.517467	yellow	0	left	left	GLO	left	close	0	intact	none	none	0	0	1.21632	0	1	left	yellow	1	0	0
404	1	8	1	none	0.5	0.517234	green	0	right	right	GLO	left	far	0	intact	none	none	0	0	2.01572	0	1	right	green	1	0	0
404	1	9	1	none	0.5	0.51695	red	1	left	left	GLO	right	far	0	intact	none	none	0	0	0.915563	0	1	up	blue	0	0	0
404	1	10	1	none	0.5	0.51753	blue	0	up	up	GLO	right	close	0	intact	none	none	0	0	1.06635	0	1	down	red	0	0	0
404	1	11	1	none	0.5	0.516707	blue	1	right	right	GLO	right	far	0	intact	none	none	0	0	3.81599	0	1	down	red	0	0	0
404	1	12	1	none	0.5	0.516078	green	0	right	right	GLO	right	far	0	intact	none	none	0	0	1.41656	0	1	right	green	1	0	0
404	1	13	1	none	0.5	0.51636	green	1	down	down	GLO	left	close	0	intact	none	none	0	0	0.828269	0	1	right	green	1	0	0
404	1	14	1	none	0.5	0.516898	blue	0	up	up	GLO	left	far	0	intact	none	none	0	0	2.4346	0	1	up	blue	1	0	0
404	1	15	1	none	0.5	0.516432	blue	1	left	left	GLO	left	far	0	intact	none	none	0	0	2.39984	0	1	up	blue	1	0	0
404	1	16	1	none	0.5	0.516832	yellow	1	down	down	GLO	right	close	0	intact	none	none	0	0	2.23217	0	1	left	yellow	1	0	0
404	1	17	1	none	0.5	0.516437	yellow	1	down	down	GLO	right	close	0	intact	none	none	0	0	0.98391	0	1	left	yellow	1	0	0
404	1	18	1	none	0.5	0.51725	yellow	1	down	down	GLO	right	far	0	intact	none	none	0	0	0.866903	0	1	left	yellow	1	0	0
404	1	19	1	none	0.5	0.516902	blue	1	right	right	GLO	left	far	0	intact	none	none	0	0	2.099	0	1	down	red	0	0	0
404	1	20	1	none	0.5	0.515786	red	0	down	down	GLO	left	close	0	intact	none	none	0	0	0.956456	0	1	up	blue	0	0	0
404	1	21	1	none	0.5	0.517958	yellow	0	left	left	GLO	right	far	0	intact	none	none	0	0	0.82835	0	1	left	yellow	1	0	0
404	1	22	1	none	0.5	0.517878	yellow	0	left	left	GLO	left	close	0	intact	none	none	0	0	0.88306	0	1	left	yellow	1	0	0
404	1	23	1	none	0.5	0.517428	green	0	right	right	GLO	left	far	0	intact	none	none	0	0	1.00029	0	1	right	green	1	0	0
404	1	24	1	none	0.5	0.516451	red	1	left	left	GLO	left	close	0	intact	none	none	0	0	2.19999	0	1	up	blue	0	0	0
404	1	25	1	none	0.5	0.517179	green	1	left	left	GLO	right	far	0	intact	none	none	0	0	0.892469	0	1	left	yellow	0	0	0
404	1	26	1	none	0.5	0.517019	red	1	right	right	GLO	left	far	0	intact	none	none	0	0	1.94378	0	1	up	blue	0	0	0
404	1	27	1	none	0.5	0.517161	blue	1	right	right	GLO	left	far	0	intact	none	none	0	0	1.63334	0	1	down	red	0	0	0
404	1	28	1	none	0.5	0.516402	yellow	0	left	left	GLO	left	far	0	intact	none	none	0	0	0.783316	0	1	left	yellow	1	0	0
404	1	29	1	none	0.5	0.516827	red	0	down	down	GLO	left	far	0	intact	none	none	0	0	1.44984	0	1	up	blue	0	0	0
404	1	30	1	none	0.5	0.516782	blue	0	up	up	GLO	left	far	0	intact	none	none	0	0	0.830578	0	1	down	red	0	0	0
404	1	31	1	none	0.5	0.517498	yellow	0	left	left	GLO	right	close	0	intact	none	none	0	0	1.14482	0	1	left	yellow	1	0	0
404	1	32	1	none	0.5	0.516666	yellow	0	left	left	GLO	right	far	0	intact	none	none	0	0	1.19091	0	1	left	yellow	1	0	0
404	1	33	1	none	0.5	0.51701	yellow	0	left	left	GLO	left	far	0	intact	none	none	0	0	0.849753	0	1	left	yellow	1	0	0
404	1	34	1	none	0.5	0.516917	red	0	down	down	GLO	left	close	0	intact	none	none	0	0	1.73367	0	1	up	blue	0	0	0
404	1	35	1	none	0.5	0.515973	red	1	left	left	GLO	right	far	0	intact	none	none	0	0	1.58426	0	1	up	blue	0	0	0
404	1	36	1	none	0.5	0.516595	blue	1	right	right	GLO	right	far	0	intact	none	none	0	0	1.04109	0	1	down	red	0	0	0
404	1	37	1	none	0.5	0.516492	red	1	left	left	GLO	right	close	0	intact	none	none	0	0	1.19873	0	1	up	blue	0	0	0
404	1	38	1	none	0.5	0.516852	green	0	right	right	GLO	right	far	0	intact	none	none	0	0	0.900147	0	1	left	yellow	0	0	0
404	1	39	1	none	0.5	0.516444	yellow	1	up	up	GLO	right	close	0	intact	none	none	0	0	1.06469	0	1	left	yellow	1	0	0
404	1	40	1	none	0.5	0.516129	blue	0	up	up	GLO	left	far	0	intact	none	none	0	0	0.91744	0	1	down	red	0	0	0
404	1	41	1	none	0.5	0.516406	yellow	1	right	right	GLO	left	far	0	intact	none	none	0	0	0.866702	0	1	left	yellow	1	0	0
404	1	42	1	none	0.5	0.517518	yellow	0	left	left	GLO	right	far	0	intact	none	none	0	0	0.667004	0	1	left	yellow	1	0	0
404	1	43	1	none	0.5	0.515974	green	1	left	left	GLO	right	far	0	intact	none	none	0	0	0.98537	0	1	right	green	1	0	0
404	1	44	1	none	0.5	0.516948	red	0	down	down	GLO	right	close	0	intact	none	none	0	0	1.64992	0	1	up	blue	0	0	0
404	1	45	1	none	1.5	1.51575	green	0	right	right	GLO	right	far	0	intact	none	none	0	0	1.25106	0	1	right	green	1	0	0
404	1	46	1	none	1.5	1.51594	green	1	left	left	GLO	right	close	0	intact	none	none	0	0	0.76714	0	1	right	green	1	0	0
404	1	47	1	none	1.5	1.51663	green	0	right	right	GLO	right	far	0	intact	none	none	0	0	0.60002	0	1	right	green	1	0	0
404	1	48	1	none	1.5	1.51727	blue	1	down	down	GLO	right	close	0	intact	none	none	0	0	1.41515	0	1	down	red	0	0	0
404	1	49	1	none	1.5	1.51633	red	0	down	down	GLO	right	far	0	intact	none	none	0	0	1.26625	0	1	up	blue	0	0	0
404	1	50	1	none	1.5	1.5169	green	0	right	right	GLO	right	far	0	intact	none	none	0	0	1.08306	0	1	right	green	1	0	0
404	1	51	1	none	1.5	1.51661	yellow	0	left	left	GLO	right	close	0	intact	none	none	0	0	0.942975	0	1	left	yellow	1	0	0
404	1	52	1	none	1.5	1.51661	red	1	up	up	GLO	left	close	0	intact	none	none	0	0	1.29956	0	1	up	blue	0	0	0
404	1	53	1	none	1.5	1.51575	yellow	0	left	left	GLO	right	far	0	intact	none	none	0	0	1.11569	0	1	left	yellow	1	0	0
404	1	54	1	none	1.5	1.51669	blue	0	up	up	GLO	left	close	0	intact	none	none	0	0	1.3004	0	1	down	red	0	0	0
404	1	55	1	none	1.5	1.51687	yellow	1	up	up	GLO	left	close	0	intact	none	none	0	0	0.683249	0	1	left	yellow	1	0	0
404	1	56	1	none	1.5	1.51713	blue	0	up	up	GLO	right	far	0	intact	none	none	0	0	1.56574	0	1	down	red	0	0	0
404	1	57	1	none	1.5	1.51656	red	1	left	left	GLO	left	far	0	intact	none	none	0	0	0.967629	0	1	up	blue	0	0	0
404	1	58	1	none	1.5	1.5168	blue	1	down	down	GLO	right	close	0	intact	none	none	0	0	0.86566	0	1	down	red	0	0	0
404	1	59	1	none	1.5	1.5174	blue	1	left	left	GLO	left	far	0	intact	none	none	0	0	1.80836	0	1	down	red	0	0	0
404	1	60	1	none	1.5	1.51735	red	1	left	left	GLO	right	far	0	intact	none	none	0	0	0.873407	0	1	up	blue	0	0	0
404	1	61	1	none	1.5	1.51588	yellow	0	left	left	GLO	right	far	0	intact	none	none	0	0	1.71762	0	1	left	yellow	1	0	0
404	1	62	1	none	1.5	1.51708	red	1	left	left	GLO	right	close	0	intact	none	none	0	0	1.71251	0	1	up	blue	0	0	0
404	1	63	1	none	1.5	1.51684	red	1	right	right	GLO	right	far	0	intact	none	none	0	0	0.783828	0	1	up	blue	0	0	0
404	1	64	1	none	1.5	1.517	blue	1	left	left	GLO	left	far	0	intact	none	none	0	0	2.94985	0	1	down	red	0	0	0
404	1	65	1	none	1.5	1.51758	yellow	0	left	left	GLO	right	close	0	intact	none	none	0	0	1.37572	0	1	left	yellow	1	0	0
404	1	66	1	none	1.5	1.51683	blue	1	down	down	GLO	left	close	0	intact	none	none	0	0	2.37364	0	1	down	red	0	0	0
404	1	67	1	none	1.5	1.51685	blue	1	left	left	GLO	left	far	0	intact	none	none	0	0	1.29959	0	1	down	red	0	0	0
404	1	68	1	none	1.5	1.51652	yellow	0	left	left	GLO	right	close	0	intact	none	none	0	0	0.724311	0	1	left	yellow	1	0	0
404	1	69	1	none	1.5	1.51742	blue	0	up	up	GLO	right	far	0	intact	none	none	0	0	1.96609	0	1	down	red	0	0	0
404	1	70	1	none	1.5	1.51688	yellow	1	down	down	GLO	right	close	0	intact	none	none	0	0	2.01512	0	1	left	yellow	1	0	0
404	1	71	1	none	1.5	1.51619	red	1	right	right	GLO	right	far	0	intact	none	none	0	0	2.16675	0	1	up	blue	0	0	0
404	1	72	1	none	1.5	1.51745	green	0	right	right	GLO	right	close	0	intact	none	none	0	0	1.06623	0	1	right	green	1	0	0
404	1	73	1	none	1.5	1.51711	yellow	0	left	left	GLO	left	far	0	intact	none	none	0	0	0.650028	0	1	left	yellow	1	0	0
404	1	74	1	none	1.5	NaN	green	0	right	right	GLO	none	close	0	intact	none	none	0	0	NaN	NaN	NaN	none	none	NaN	0	0
404	1	75	1	none	1.5	NaN	yellow	0	left	left	GLO	none	close	0	intact	none	none	0	0	NaN	NaN	NaN	none	none	NaN	0	0
404	1	76	1	none	1.5	NaN	yellow	0	left	left	GLO	none	close	0	intact	none	none	0	0	NaN	NaN	NaN	none	none	NaN	0	0
404	1	77	1	none	1.5	NaN	blue	0	up	up	GLO	none	far	0	intact	none	none	0	0	NaN	NaN	NaN	none	none	NaN	0	0
404	1	78	1	none	1.5	NaN	yellow	0	left	left	GLO	none	close	0	intact	none	none	0	0	NaN	NaN	NaN	none	none	NaN	0	0
404	1	79	1	none	1.5	NaN	red	1	up	up	GLO	none	close	0	intact	none	none	0	0	NaN	NaN	NaN	none	none	NaN	0	0
404	1	80	1	none	1.5	NaN	blue	0	up	up	GLO	none	far	0	intact	none	none	0	0	NaN	NaN	NaN	none	none	NaN	0	0
404	1	81	1	none	1.5	NaN	green	1	down	down	GLO	none	far	0	intact	none	none	0	0	NaN	NaN	NaN	none	none	NaN	0	0
404	1	82	1	none	1.5	NaN	green	1	down	down	GLO	none	far	0	intact	none	none	0	0	NaN	NaN	NaN	none	none	NaN	0	0
404	1	83	1	none	1.5	NaN	green	1	down	down	GLO	none	far	0	intact	none	none	0	0	NaN	NaN	NaN	none	none	NaN	0	0
404	1	84	1	none	1.5	NaN	blue	1	left	left	GLO	none	close	0	intact	none	none	0	0	NaN	NaN	NaN	none	none	NaN	0	0
404	1	85	1	none	1.5	NaN	green	0	right	right	GLO	none	close	0	intact	none	none	0	0	NaN	NaN	NaN	none	none	NaN	0	0
404	1	86	1	none	1.5	NaN	green	1	up	up	GLO	none	close	0	intact	none	none	0	0	NaN	NaN	NaN	none	none	NaN	0	0
404	1	87	1	none	1.5	NaN	red	1	up	up	GLO	none	far	0	intact	none	none	0	0	NaN	NaN	NaN	none	none	NaN	0	0
404	1	88	1	none	1.5	NaN	blue	1	down	down	GLO	none	close	0	intact	none	none	0	0	NaN	NaN	NaN	none	none	NaN	0	0
404	1	89	1	none	1.5	NaN	red	0	down	down	GLO	none	close	0	intact	none	none	0	0	NaN	NaN	NaN	none	none	NaN	0	0
404	1	90	1	none	1.5	NaN	red	0	down	down	GLO	none	far	0	intact	none	none	0	0	NaN	NaN	NaN	none	none	NaN	0	0
404	1	91	1	none	1.5	NaN	red	0	down	down	GLO	none	far	0	intact	none	none	0	0	NaN	NaN	NaN	none	none	NaN	0	0
404	1	92	1	none	1.5	NaN	yellow	0	left	left	GLO	none	far	0	intact	none	none	0	0	NaN	NaN	NaN	none	none	NaN	0	0
404	1	93	1	none	1.5	NaN	yellow	0	left	left	GLO	none	close	0	intact	none	none	0	0	NaN	NaN	NaN	none	none	NaN	0	0
404	1	94	1	none	1.5	NaN	blue	0	up	up	GLO	none	far	0	intact	none	none	0	0	NaN	NaN	NaN	none	none	NaN	0	0
404	1	95	1	none	1.5	NaN	yellow	1	up	up	GLO	none	close	0	intact	none	none	0	0	NaN	NaN	NaN	none	none	NaN	0	0
404	1	96	1	none	1.5	NaN	red	0	down	down	GLO	none	far	0	intact	none	none	0	0	NaN	NaN	NaN	none	none	NaN	0	0
404	1	97	1	none	1.5	NaN	red	1	left	left	GLO	none	far	0	intact	none	none	0	0	NaN	NaN	NaN	none	none	NaN	0	0
404	1	98	1	none	1.5	NaN	yellow	1	down	down	GLO	none	far	0	intact	none	none	0	0	NaN	NaN	NaN	none	none	NaN	0	0
404	1	99	1	none	1.5	NaN	green	1	up	up	GLO	none	far	0	intact	none	none	0	0	NaN	NaN	NaN	none	none	NaN	0	0
404	1	100	1	none	1.5	NaN	red	1	up	up	GLO	none	close	0	intact	none	none	0	0	NaN	NaN	NaN	none	none	NaN	0	0
404	1	101	1	none	1.5	NaN	yellow	0	left	left	GLO	none	far	0	intact	none	none	0	0	NaN	NaN	NaN	none	none	NaN	0	0
404	1	102	1	none	1.5	NaN	green	1	down	down	GLO	none	close	0	intact	none	none	0	0	NaN	NaN	NaN	none	none	NaN	0	0
404	1	103	1	none	1.5	NaN	yellow	0	left	left	GLO	none	far	0	intact	none	none	0	0	NaN	NaN	NaN	none	none	NaN	0	0
404	1	104	1	none	1.5	NaN	red	1	left	left	GLO	none	far	0	intact	none	none	0	0	NaN	NaN	NaN	none	none	NaN	0	0
404	1	105	1	none	1.5	NaN	red	0	down	down	GLO	none	close	0	intact	none	none	0	0	NaN	NaN	NaN	none	none	NaN	0	0
404	1	106	1	none	1.5	NaN	blue	1	left	left	GLO	none	far	0	intact	none	none	0	0	NaN	NaN	NaN	none	none	NaN	0	0
404	1	107	1	none	1.5	NaN	blue	1	left	left	GLO	none	far	0	intact	none	none	0	0	NaN	NaN	NaN	none	none	NaN	0	0
404	1	108	1	none	1.5	NaN	blue	1	left	left	GLO	none	close	0	intact	none	none	0	0	NaN	NaN	NaN	none	none	NaN	0	0
404	1	109	1	none	1.5	NaN	blue	1	right	right	GLO	none	far	0	intact	none	none	0	0	NaN	NaN	NaN	none	none	NaN	0	0
404	1	110	1	none	1.5	NaN	green	0	right	right	GLO	none	far	0	intact	none	none	0	0	NaN	NaN	NaN	none	none	NaN	0	0
404	1	111	1	none	1.5	NaN	blue	1	down	down	GLO	none	far	0	intact	none	none	0	0	NaN	NaN	NaN	none	none	NaN	0	0
404	1	112	1	none	1.5	NaN	blue	0	up	up	GLO	none	far	0	intact	none	none	0	0	NaN	NaN	NaN	none	none	NaN	0	0
404	1	113	1	none	1.5	NaN	yellow	0	left	left	GLO	none	far	0	intact	none	none	0	0	NaN	NaN	NaN	none	none	NaN	0	0
404	1	114	1	none	1.5	NaN	green	0	right	right	GLO	none	close	0	intact	none	none	0	0	NaN	NaN	NaN	none	none	NaN	0	0
404	1	115	1	none	1.5	NaN	yellow	1	right	right	GLO	none	far	0	intact	none	none	0	0	NaN	NaN	NaN	none	none	NaN	0	0
404	1	116	1	none	1.5	NaN	blue	0	up	up	GLO	none	far	0	intact	none	none	0	0	NaN	NaN	NaN	none	none	NaN	0	0
404	1	117	1	none	1.5	NaN	blue	0	up	up	GLO	none	far	0	intact	none	none	0	0	NaN	NaN	NaN	none	none	NaN	0	0
404	1	118	1	none	1.5	NaN	green	0	right	right	GLO	none	close	0	intact	none	none	0	0	NaN	NaN	NaN	none	none	NaN	0	0
404	1	119	1	none	1.5	NaN	red	0	down	down	GLO	none	close	0	intact	none	none	0	0	NaN	NaN	NaN	none	none	NaN	0	0
404	1	120	1	none	1.5	NaN	green	1	up	up	GLO	none	close	0	intact	none	none	0	0	NaN	NaN	NaN	none	none	NaN	0	0
404	1	121	1	none	1.5	NaN	yellow	0	left	left	GLO	none	close	0	intact	none	none	0	0	NaN	NaN	NaN	none	none	NaN	0	0
404	1	122	1	none	1.5	NaN	blue	1	right	right	GLO	none	close	0	intact	none	none	0	0	NaN	NaN	NaN	none	none	NaN	0	0
404	1	123	1	none	1.5	NaN	red	0	down	down	GLO	none	close	0	intact	none	none	0	0	NaN	NaN	NaN	none	none	NaN	0	0
404	1	124	1	none	1.5	NaN	yellow	1	right	right	GLO	none	close	0	intact	none	none	0	0	NaN	NaN	NaN	none	none	NaN	0	0
404	1	125	1	none	1.5	NaN	green	1	up	up	GLO	none	close	0	intact	none	none	0	0	NaN	NaN	NaN	none	none	NaN	0	0
404	1	126	1	none	1.5	NaN	red	0	down	down	GLO	none	close	0	intact	none	none	0	0	NaN	NaN	NaN	none	none	NaN	0	0
404	1	127	1	none	1.5	NaN	yellow	1	down	down	GLO	none	far	0	intact	none	none	0	0	NaN	NaN	NaN	none	none	NaN	0	0
404	1	128	1	none	1.5	NaN	yellow	1	down	down	GLO	none	far	0	intact	none	none	0	0	NaN	NaN	NaN	none	none	NaN	0	0
404	1	129	1	none	1.5	NaN	yellow	0	left	left	GLO	none	far	0	intact	none	none	0	0	NaN	NaN	NaN	none	none	NaN	0	0
404	1	130	1	none	1.5	NaN	blue	0	up	up	GLO	none	far	0	intact	none	none	0	0	NaN	NaN	NaN	none	none	NaN	0	0
404	1	131	1	none	1.5	NaN	red	1	left	left	GLO	none	far	0	intact	none	none	0	0	NaN	NaN	NaN	none	none	NaN	0	0
404	1	132	1	none	1.5	NaN	blue	1	right	right	GLO	none	far	0	intact	none	none	0	0	NaN	NaN	NaN	none	none	NaN	0	0
404	1	133	1	none	1.5	NaN	red	0	down	down	GLO	none	close	0	intact	none	none	0	0	NaN	NaN	NaN	none	none	NaN	0	0
404	1	134	1	none	1.5	NaN	green	0	right	right	GLO	none	close	0	intact	none	none	0	0	NaN	NaN	NaN	none	none	NaN	0	0
404	1	135	1	none	1.5	NaN	yellow	0	left	left	GLO	none	far	0	intact	none	none	0	0	NaN	NaN	NaN	none	none	NaN	0	0
404	1	136	1	none	1.5	NaN	yellow	1	up	up	GLO	none	close	0	intact	none	none	0	0	NaN	NaN	NaN	none	none	NaN	0	0
404	1	137	1	none	1.5	NaN	green	0	right	right	GLO	none	close	0	intact	none	none	0	0	NaN	NaN	NaN	none	none	NaN	0	0
404	1	138	1	none	1.5	NaN	yellow	0	left	left	GLO	none	close	0	intact	none	none	0	0	NaN	NaN	NaN	none	none	NaN	0	0
404	1	139	1	none	1.5	NaN	yellow	0	left	left	GLO	none	close	0	intact	none	none	0	0	NaN	NaN	NaN	none	none	NaN	0	0
404	1	140	1	none	1.5	NaN	yellow	1	up	up	GLO	none	far	0	intact	none	none	0	0	NaN	NaN	NaN	none	none	NaN	0	0
404	1	141	1	none	1.5	NaN	yellow	1	down	down	GLO	none	far	0	intact	none	none	0	0	NaN	NaN	NaN	none	none	NaN	0	0
404	1	142	1	none	1.5	NaN	yellow	0	left	left	GLO	none	far	0	intact	none	none	0	0	NaN	NaN	NaN	none	none	NaN	0	0
404	1	143	1	none	1.5	NaN	yellow	0	left	left	GLO	none	far	0	intact	none	none	0	0	NaN	NaN	NaN	none	none	NaN	0	0
404	1	144	1	none	1.5	NaN	green	1	left	left	GLO	none	close	0	intact	none	none	0	0	NaN	NaN	NaN	none	none	NaN	0	0
404	1	145	1	none	1.5	NaN	yellow	0	left	left	GLO	none	far	0	intact	none	none	0	0	NaN	NaN	NaN	none	none	NaN	0	0
404	1	146	1	none	1.5	NaN	red	0	down	down	GLO	none	close	0	intact	none	none	0	0	NaN	NaN	NaN	none	none	NaN	0	0
404	1	147	1	none	1.5	NaN	blue	0	up	up	GLO	none	far	0	intact	none	none	0	0	NaN	NaN	NaN	none	none	NaN	0	0
404	1	148	1	none	1.5	NaN	red	0	down	down	GLO	none	close	0	intact	none	none	0	0	NaN	NaN	NaN	none	none	NaN	0	0
404	1	149	1	none	1.5	NaN	red	0	down	down	GLO	none	far	0	intact	none	none	0	0	NaN	NaN	NaN	none	none	NaN	0	0
404	1	150	1	none	1.5	NaN	green	1	left	left	GLO	none	close	0	intact	none	none	0	0	NaN	NaN	NaN	none	none	NaN	0	0
404	1	151	1	none	1.5	NaN	blue	0	up	up	GLO	none	far	0	intact	none	none	0	0	NaN	NaN	NaN	none	none	NaN	0	0
404	1	152	1	none	1.5	NaN	blue	0	up	up	GLO	none	far	0	intact	none	none	0	0	NaN	NaN	NaN	none	none	NaN	0	0
404	1	153	1	none	1.5	NaN	blue	0	up	up	GLO	none	close	0	intact	none	none	0	0	NaN	NaN	NaN	none	none	NaN	0	0
404	1	154	1	none	1.5	NaN	yellow	0	left	left	GLO	none	far	0	intact	none	none	0	0	NaN	NaN	NaN	none	none	NaN	0	0
404	1	155	1	none	1.5	NaN	yellow	0	left	left	GLO	none	close	0	intact	none	none	0	0	NaN	NaN	NaN	none	none	NaN	0	0
404	1	156	1	none	1.5	NaN	green	1	down	down	GLO	none	far	0	intact	none	none	0	0	NaN	NaN	NaN	none	none	NaN	0	0
404	1	157	1	none	1.5	NaN	green	0	right	right	GLO	none	close	0	intact	none	none	0	0	NaN	NaN	NaN	none	none	NaN	0	0
404	1	158	1	none	1.5	NaN	green	0	right	right	GLO	none	far	0	intact	none	none	0	0	NaN	NaN	NaN	none	none	NaN	0	0
404	1	159	1	none	1.5	NaN	green	1	up	up	GLO	none	far	0	intact	none	none	0	0	NaN	NaN	NaN	none	none	NaN	0	0
404	1	160	1	none	1.5	NaN	green	0	right	right	GLO	none	far	0	intact	none	none	0	0	NaN	NaN	NaN	none	none	NaN	0	0
404	1	161	1	none	1.5	NaN	blue	1	left	left	GLO	none	far	0	intact	none	none	0	0	NaN	NaN	NaN	none	none	NaN	0	0
404	1	162	1	none	1.5	NaN	green	1	left	left	GLO	none	far	0	intact	none	none	0	0	NaN	NaN	NaN	none	none	NaN	0	0
404	1	163	1	none	1.5	NaN	blue	0	up	up	GLO	none	far	0	intact	none	none	0	0	NaN	NaN	NaN	none	none	NaN	0	0
404	1	164	1	none	1.5	NaN	yellow	0	left	left	GLO	none	close	0	intact	none	none	0	0	NaN	NaN	NaN	none	none	NaN	0	0
404	1	165	1	none	1.5	NaN	yellow	0	left	left	GLO	none	close	0	intact	none	none	0	0	NaN	NaN	NaN	none	none	NaN	0	0
404	1	166	1	none	1.5	NaN	red	1	right	right	GLO	none	close	0	intact	none	none	0	0	NaN	NaN	NaN	none	none	NaN	0	0
404	1	167	1	none	1.5	NaN	green	1	left	left	GLO	none	far	0	intact	none	none	0	0	NaN	NaN	NaN	none	none	NaN	0	0
404	1	168	1	none	1.5	NaN	red	0	down	down	GLO	none	close	0	intact	none	none	0	0	NaN	NaN	NaN	none	none	NaN	0	0
404	1	169	1	none	1.5	NaN	blue	1	down	down	GLO	none	far	0	intact	none	none	0	0	NaN	NaN	NaN	none	none	NaN	0	0
404	1	170	1	none	1.5	NaN	blue	1	down	down	GLO	none	far	0	intact	none	none	0	0	NaN	NaN	NaN	none	none	NaN	0	0
404	1	171	1	none	1.5	NaN	green	0	right	right	GLO	none	close	0	intact	none	none	0	0	NaN	NaN	NaN	none	none	NaN	0	0
404	1	172	1	none	1.5	NaN	red	0	down	down	GLO	none	far	0	intact	none	none	0	0	NaN	NaN	NaN	none	none	NaN	0	0
404	1	173	1	none	1.5	NaN	blue	0	up	up	GLO	none	close	0	intact	none	none	0	0	NaN	NaN	NaN	none	none	NaN	0	0
404	1	174	1	none	1.5	NaN	green	1	down	down	GLO	none	close	0	intact	none	none	0	0	NaN	NaN	NaN	none	none	NaN	0	0
404	1	175	1	none	1.5	NaN	blue	0	up	up	GLO	none	close	0	intact	none	none	0	0	NaN	NaN	NaN	none	none	NaN	0	0
404	1	176	1	none	1.5	NaN	yellow	1	down	down	GLO	none	far	0	intact	none	none	0	0	NaN	NaN	NaN	none	none	NaN	0	0
404	1	177	1	none	1.5	NaN	yellow	1	down	down	GLO	none	far	0	intact	none	none	0	0	NaN	NaN	NaN	none	none	NaN	0	0
404	1	178	1	none	1.5	NaN	green	1	left	left	GLO	none	close	0	intact	none	none	0	0	NaN	NaN	NaN	none	none	NaN	0	0
404	1	179	1	none	1.5	NaN	red	0	down	down	GLO	none	far	0	intact	none	none	0	0	NaN	NaN	NaN	none	none	NaN	0	0
404	1	180	1	none	1.5	NaN	blue	1	right	right	GLO	none	far	0	intact	none	none	0	0	NaN	NaN	NaN	none	none	NaN	0	0
404	1	181	1	none	1.5	NaN	yellow	1	right	right	GLO	none	close	0	intact	none	none	0	0	NaN	NaN	NaN	none	none	NaN	0	0
404	1	182	1	none	1.5	NaN	red	0	down	down	GLO	none	close	0	intact	none	none	0	0	NaN	NaN	NaN	none	none	NaN	0	0
404	1	183	1	none	1.5	NaN	yellow	1	down	down	GLO	none	far	0	intact	none	none	0	0	NaN	NaN	NaN	none	none	NaN	0	0
404	1	184	1	none	1.5	NaN	yellow	1	right	right	GLO	none	far	0	intact	none	none	0	0	NaN	NaN	NaN	none	none	NaN	0	0
404	1	185	1	none	1.5	NaN	yellow	0	left	left	GLO	none	far	0	intact	none	none	0	0	NaN	NaN	NaN	none	none	NaN	0	0
404	1	186	1	none	1.5	NaN	red	1	up	up	GLO	none	far	0	intact	none	none	0	0	NaN	NaN	NaN	none	none	NaN	0	0
404	1	187	1	none	1.5	NaN	blue	1	down	down	GLO	none	far	0	intact	none	none	0	0	NaN	NaN	NaN	none	none	NaN	0	0
404	1	188	1	none	1.5	NaN	yellow	0	left	left	GLO	none	close	0	intact	none	none	0	0	NaN	NaN	NaN	none	none	NaN	0	0
404	1	189	1	none	1.5	NaN	red	0	down	down	GLO	none	far	0	intact	none	none	0	0	NaN	NaN	NaN	none	none	NaN	0	0
404	1	190	1	none	1.5	NaN	green	0	right	right	GLO	none	close	0	intact	none	none	0	0	NaN	NaN	NaN	none	none	NaN	0	0
404	1	191	1	none	1.5	NaN	yellow	1	up	up	GLO	none	close	0	intact	none	none	0	0	NaN	NaN	NaN	none	none	NaN	0	0
404	1	192	1	none	1.5	NaN	red	0	down	down	GLO	none	far	0	intact	none	none	0	0	NaN	NaN	NaN	none	none	NaN	0	0
404	1	193	1	none	1.5	NaN	green	1	up	up	GLO	none	far	0	intact	none	none	0	0	NaN	NaN	NaN	none	none	NaN	0	0
404	1	194	1	none	1.5	NaN	yellow	1	down	down	GLO	none	close	0	intact	none	none	0	0	NaN	NaN	NaN	none	none	NaN	0	0
404	1	195	1	none	1.5	NaN	blue	1	left	left	GLO	none	close	0	intact	none	none	0	0	NaN	NaN	NaN	none	none	NaN	0	0
404	1	196	1	none	1.5	NaN	green	0	right	right	GLO	none	close	0	intact	none	none	0	0	NaN	NaN	NaN	none	none	NaN	0	0
404	1	197	1	none	1.5	NaN	yellow	0	left	left	GLO	none	close	0	intact	none	none	0	0	NaN	NaN	NaN	none	none	NaN	0	0
404	1	198	1	none	1.5	NaN	green	1	up	up	GLO	none	close	0	intact	none	none	0	0	NaN	NaN	NaN	none	none	NaN	0	0
404	1	199	1	none	1.5	NaN	blue	1	right	right	GLO	none	far	0	intact	none	none	0	0	NaN	NaN	NaN	none	none	NaN	0	0
404	1	200	1	none	1.5	NaN	green	0	right	right	GLO	none	close	0	intact	none	none	0	0	NaN	NaN	NaN	none	none	NaN	0	0
404	1	201	1	none	1.5	NaN	red	1	left	left	GLO	none	close	0	intact	none	none	0	0	NaN	NaN	NaN	none	none	NaN	0	0
404	1	202	1	none	1.5	NaN	green	1	down	down	GLO	none	close	0	intact	none	none	0	0	NaN	NaN	NaN	none	none	NaN	0	0
404	1	203	1	none	1.5	NaN	yellow	1	down	down	GLO	none	far	0	intact	none	none	0	0	NaN	NaN	NaN	none	none	NaN	0	0
404	1	204	1	none	1.5	NaN	yellow	1	down	down	GLO	none	far	0	intact	none	none	0	0	NaN	NaN	NaN	none	none	NaN	0	0
404	1	205	1	none	1.5	NaN	blue	0	up	up	GLO	none	far	0	intact	none	none	0	0	NaN	NaN	NaN	none	none	NaN	0	0
404	1	206	1	none	1.5	NaN	blue	0	up	up	GLO	none	close	0	intact	none	none	0	0	NaN	NaN	NaN	none	none	NaN	0	0
404	1	207	1	none	1.5	NaN	yellow	0	left	left	GLO	none	far	0	intact	none	none	0	0	NaN	NaN	NaN	none	none	NaN	0	0
404	1	208	1	none	1.5	NaN	red	1	right	right	GLO	none	far	0	intact	none	none	0	0	NaN	NaN	NaN	none	none	NaN	0	0
404	1	209	1	none	1.5	NaN	blue	1	down	down	GLO	none	close	0	intact	none	none	0	0	NaN	NaN	NaN	none	none	NaN	0	0
404	1	210	1	none	1.5	NaN	red	0	down	down	GLO	none	close	0	intact	none	none	0	0	NaN	NaN	NaN	none	none	NaN	0	0
404	1	211	1	none	1.5	NaN	yellow	0	left	left	GLO	none	far	0	intact	none	none	0	0	NaN	NaN	NaN	none	none	NaN	0	0
404	1	212	1	none	1.5	NaN	green	1	down	down	GLO	none	far	0	intact	none	none	0	0	NaN	NaN	NaN	none	none	NaN	0	0
404	1	213	1	none	1.5	NaN	red	1	up	up	GLO	none	far	0	intact	none	none	0	0	NaN	NaN	NaN	none	none	NaN	0	0
404	1	214	1	none	1.5	NaN	green	1	down	down	GLO	none	close	0	intact	none	none	0	0	NaN	NaN	NaN	none	none	NaN	0	0
404	1	215	1	none	1.5	NaN	yellow	0	left	left	GLO	none	close	0	intact	none	none	0	0	NaN	NaN	NaN	none	none	NaN	0	0
404	1	216	1	none	1.5	NaN	yellow	1	down	down	GLO	none	close	0	intact	none	none	0	0	NaN	NaN	NaN	none	none	NaN	0	0
404	1	217	1	none	1.5	NaN	yellow	1	down	down	GLO	none	far	0	intact	none	none	0	0	NaN	NaN	NaN	none	none	NaN	0	0
404	1	218	1	none	1.5	NaN	blue	0	up	up	GLO	none	close	0	intact	none	none	0	0	NaN	NaN	NaN	none	none	NaN	0	0
404	1	219	1	none	1.5	NaN	yellow	0	left	left	GLO	none	close	0	intact	none	none	0	0	NaN	NaN	NaN	none	none	NaN	0	0
404	1	220	1	none	1.5	NaN	yellow	1	right	right	GLO	none	far	0	intact	none	none	0	0	NaN	NaN	NaN	none	none	NaN	0	0
404	1	221	1	none	1.5	NaN	yellow	0	left	left	GLO	none	close	0	intact	none	none	0	0	NaN	NaN	NaN	none	none	NaN	0	0
404	1	222	1	none	1.5	NaN	blue	1	down	down	GLO	none	close	0	intact	none	none	0	0	NaN	NaN	NaN	none	none	NaN	0	0
404	1	223	1	none	1.5	NaN	green	0	right	right	GLO	none	far	0	intact	none	none	0	0	NaN	NaN	NaN	none	none	NaN	0	0
404	1	224	1	none	1.5	NaN	blue	1	left	left	GLO	none	far	0	intact	none	none	0	0	NaN	NaN	NaN	none	none	NaN	0	0
404	1	225	1	none	1.5	NaN	red	0	down	down	GLO	none	close	0	intact	none	none	0	0	NaN	NaN	NaN	none	none	NaN	0	0
404	1	226	1	none	1.5	NaN	yellow	0	left	left	GLO	none	far	0	intact	none	none	0	0	NaN	NaN	NaN	none	none	NaN	0	0
404	1	227	1	none	1.5	NaN	yellow	0	left	left	GLO	none	far	0	intact	none	none	0	0	NaN	NaN	NaN	none	none	NaN	0	0
404	1	228	1	none	1.5	NaN	blue	0	up	up	GLO	none	close	0	intact	none	none	0	0	NaN	NaN	NaN	none	none	NaN	0	0
404	1	229	1	none	1.5	NaN	yellow	1	up	up	GLO	none	close	0	intact	none	none	0	0	NaN	NaN	NaN	none	none	NaN	0	0
404	1	230	1	none	1.5	NaN	red	0	down	down	GLO	none	far	0	intact	none	none	0	0	NaN	NaN	NaN	none	none	NaN	0	0
404	1	231	1	none	1.5	NaN	blue	1	down	down	GLO	none	far	0	intact	none	none	0	0	NaN	NaN	NaN	none	none	NaN	0	0
404	1	232	1	none	1.5	NaN	red	0	down	down	GLO	none	close	0	intact	none	none	0	0	NaN	NaN	NaN	none	none	NaN	0	0
404	1	233	1	none	1.5	NaN	red	0	down	down	GLO	none	far	0	intact	none	none	0	0	NaN	NaN	NaN	none	none	NaN	0	0
404	1	234	1	none	1.5	NaN	yellow	1	down	down	GLO	none	close	0	intact	none	none	0	0	NaN	NaN	NaN	none	none	NaN	0	0
404	1	235	1	none	1.5	NaN	red	0	down	down	GLO	none	close	0	intact	none	none	0	0	NaN	NaN	NaN	none	none	NaN	0	0
404	1	236	1	none	1.5	NaN	green	1	down	down	GLO	none	close	0	intact	none	none	0	0	NaN	NaN	NaN	none	none	NaN	0	0
404	1	237	1	none	1.5	NaN	green	0	right	right	GLO	none	close	0	intact	none	none	0	0	NaN	NaN	NaN	none	none	NaN	0	0
404	1	238	1	none	1.5	NaN	red	1	right	right	GLO	none	close	0	intact	none	none	0	0	NaN	NaN	NaN	none	none	NaN	0	0
404	1	239	1	none	1.5	NaN	green	0	right	right	GLO	none	close	0	intact	none	none	0	0	NaN	NaN	NaN	none	none	NaN	0	0
404	1	240	1	none	1.5	NaN	blue	0	up	up	GLO	none	far	0	intact	none	none	0	0	NaN	NaN	NaN	none	none	NaN	0	0
404	1	241	1	none	1.5	NaN	yellow	0	left	left	GLO	none	far	0	intact	none	none	0	0	NaN	NaN	NaN	none	none	NaN	0	0
404	1	242	1	none	1.5	NaN	yellow	0	left	left	GLO	none	far	0	intact	none	none	0	0	NaN	NaN	NaN	none	none	NaN	0	0
404	1	243	1	none	1.5	NaN	red	0	down	down	GLO	none	far	0	intact	none	none	0	0	NaN	NaN	NaN	none	none	NaN	0	0
404	1	244	1	none	1.5	NaN	green	1	down	down	GLO	none	close	0	intact	none	none	0	0	NaN	NaN	NaN	none	none	NaN	0	0
404	1	245	1	none	1.5	NaN	red	0	down	down	GLO	none	far	0	intact	none	none	0	0	NaN	NaN	NaN	none	none	NaN	0	0
404	1	246	1	none	1.5	NaN	red	1	right	right	GLO	none	far	0	intact	none	none	0	0	NaN	NaN	NaN	none	none	NaN	0	0
404	1	247	1	none	1.5	NaN	yellow	0	left	left	GLO	none	far	0	intact	none	none	0	0	NaN	NaN	NaN	none	none	NaN	0	0
404	1	248	1	none	1.5	NaN	green	0	right	right	GLO	none	far	0	intact	none	none	0	0	NaN	NaN	NaN	none	none	NaN	0	0
404	1	249	1	none	1.5	NaN	red	1	left	left	GLO	none	close	0	intact	none	none	0	0	NaN	NaN	NaN	none	none	NaN	0	0
404	1	250	1	none	1.5	NaN	red	1	left	left	GLO	none	far	0	intact	none	none	0	0	NaN	NaN	NaN	none	none	NaN	0	0
404	1	251	1	none	1.5	NaN	yellow	1	down	down	GLO	none	far	0	intact	none	none	0	0	NaN	NaN	NaN	none	none	NaN	0	0
404	1	252	1	none	1.5	NaN	yellow	1	up	up	GLO	none	close	0	intact	none	none	0	0	NaN	NaN	NaN	none	none	NaN	0	0
404	1	253	1	none	1.5	NaN	yellow	0	left	left	GLO	none	close	0	intact	none	none	0	0	NaN	NaN	NaN	none	none	NaN	0	0
404	1	254	1	none	1.5	NaN	blue	1	left	left	GLO	none	far	0	intact	none	none	0	0	NaN	NaN	NaN	none	none	NaN	0	0
404	1	255	1	none	1.5	NaN	yellow	0	left	left	GLO	none	close	0	intact	none	none	0	0	NaN	NaN	NaN	none	none	NaN	0	0
404	1	256	1	none	1.5	NaN	blue	1	left	left	GLO	none	close	0	intact	none	none	0	0	NaN	NaN	NaN	none	none	NaN	0	0
404	1	257	1	none	1.5	NaN	yellow	1	down	down	GLO	none	close	0	intact	none	none	0	0	NaN	NaN	NaN	none	none	NaN	0	0
404	1	258	1	none	1.5	NaN	red	0	down	down	GLO	none	far	0	intact	none	none	0	0	NaN	NaN	NaN	none	none	NaN	0	0
404	1	259	1	none	1.5	NaN	blue	0	up	up	GLO	none	close	0	intact	none	none	0	0	NaN	NaN	NaN	none	none	NaN	0	0
404	1	260	1	none	1.5	NaN	blue	0	up	up	GLO	none	close	0	intact	none	none	0	0	NaN	NaN	NaN	none	none	NaN	0	0
404	1	261	1	none	1.5	NaN	blue	0	up	up	GLO	none	far	0	intact	none	none	0	0	NaN	NaN	NaN	none	none	NaN	0	0
404	1	262	1	none	1.5	NaN	red	1	right	right	GLO	none	far	0	intact	none	none	0	0	NaN	NaN	NaN	none	none	NaN	0	0
404	1	263	1	none	1.5	NaN	green	1	up	up	GLO	none	far	0	intact	none	none	0	0	NaN	NaN	NaN	none	none	NaN	0	0
404	1	264	1	none	1.5	NaN	yellow	1	up	up	GLO	none	far	0	intact	none	none	0	0	NaN	NaN	NaN	none	none	NaN	0	0
404	1	265	1	none	1.5	NaN	yellow	0	left	left	GLO	none	far	0	intact	none	none	0	0	NaN	NaN	NaN	none	none	NaN	0	0
404	1	266	1	none	1.5	NaN	yellow	0	left	left	GLO	none	close	0	intact	none	none	0	0	NaN	NaN	NaN	none	none	NaN	0	0
404	1	267	1	none	1.5	NaN	blue	1	right	right	GLO	none	far	0	intact	none	none	0	0	NaN	NaN	NaN	none	none	NaN	0	0
404	1	268	1	none	1.5	NaN	red	1	up	up	GLO	none	close	0	intact	none	none	0	0	NaN	NaN	NaN	none	none	NaN	0	0
404	1	269	1	none	1.5	NaN	red	1	left	left	GLO	none	close	0	intact	none	none	0	0	NaN	NaN	NaN	none	none	NaN	0	0
404	1	270	1	none	1.5	NaN	red	0	down	down	GLO	none	close	0	intact	none	none	0	0	NaN	NaN	NaN	none	none	NaN	0	0
404	1	271	1	none	1.5	NaN	red	1	left	left	GLO	none	close	0	intact	none	none	0	0	NaN	NaN	NaN	none	none	NaN	0	0
404	1	272	1	none	1.5	NaN	blue	1	down	down	GLO	none	far	0	intact	none	none	0	0	NaN	NaN	NaN	none	none	NaN	0	0
404	1	273	1	none	1.5	NaN	yellow	1	right	right	GLO	none	far	0	intact	none	none	0	0	NaN	NaN	NaN	none	none	NaN	0	0
404	1	274	1	none	1.5	NaN	green	1	up	up	GLO	none	close	0	intact	none	none	0	0	NaN	NaN	NaN	none	none	NaN	0	0
404	1	275	1	none	1.5	NaN	green	1	up	up	GLO	none	close	0	intact	none	none	0	0	NaN	NaN	NaN	none	none	NaN	0	0
404	1	276	1	none	1.5	NaN	blue	0	up	up	GLO	none	close	0	intact	none	none	0	0	NaN	NaN	NaN	none	none	NaN	0	0
404	1	277	1	none	1.5	NaN	green	0	right	right	GLO	none	far	0	intact	none	none	0	0	NaN	NaN	NaN	none	none	NaN	0	0
404	2	1	1	self	0.5	0.517319	yellow	1	up	up	GLO	left	far	1	intact	intact	a3a57263-6857-435d-87b3-5c44ae53e10a_fps_avg_aud.mp4	0	0	1.66603	0	1	left	yellow	1	0	0
404	2	2	1	self	0.5	0.517829	yellow	1	right	right	GLO	right	close	1	intact	intact	e5e9435d-267e-4f33-bd02-80f8eeedf363_fps_avg_aud.mp4	0	0	0.833888	0	1	left	yellow	1	0	0
404	2	3	1	self	0.5	0.51657	yellow	1	down	down	GLO	left	close	1	intact	intact	ed5c9b46-1903-43ac-bc9d-4681004c3550_fps_avg_aud.mp4	0	0	1.0499	0	1	left	yellow	1	0	0
404	2	4	1	self	0.5	0.516811	yellow	0	left	left	GLO	left	far	1	intact	intact	July6_fps_avg_aud.mp4	0	0	1.58308	0	1	left	yellow	1	0	0
404	2	5	1	self	0.5	0.517093	yellow	1	right	right	GLO	left	close	1	intact	intact	October_2015_fps_avg_aud.mp4	0	0	0.989999	0	1	left	yellow	1	0	0
404	2	6	1	self	0.5	0.516456	yellow	0	left	left	GLO	right	far	1	intact	intact	089179b5-68cb-4167-89fa-52f69549f728_fps_avg_aud.mp4	0	0	0.567246	0	1	left	yellow	1	0	0
404	2	7	1	self	0.5	0.517168	yellow	0	left	left	GLO	left	far	1	intact	intact	march_21_2016_fps_avg_aud.mp4	0	0	0.46654	0	1	left	yellow	1	0	0
404	2	8	1	self	0.5	0.517216	red	1	left	left	GLO	left	far	1	intact	intact	fc42fffc-beb2-426f-85f8-fe9f11671486_fps_avg_aud.mp4	0	0	0.800003	0	1	down	red	1	0	0
404	2	9	1	self	0.5	0.516528	blue	1	left	left	GLO	right	close	1	intact	intact	592c03b4-010b-4f30-8521-fbf254e827b0_fps_avg_aud.mp4	0	0	3.18362	0	1	down	red	0	0	0
404	2	10	1	self	0.5	0.516124	yellow	0	left	left	GLO	left	close	1	intact	intact	Jan11_fps_avg_aud.mp4	0	0	0.581103	0	1	left	yellow	1	0	0
404	2	11	1	self	0.5	0.516562	yellow	1	down	down	GLO	left	far	1	intact	intact	c3c668bd-3353-4887-b3ff-6d0225f5629c_fps_avg_aud.mp4	0	0	1.15031	0	1	left	yellow	1	0	0
404	2	12	1	self	0.5	0.516398	blue	1	down	down	GLO	right	far	1	intact	intact	Sep24_fps_avg_aud.mp4	0	0	1.38402	0	1	down	red	0	0	0
404	2	13	1	self	0.5	0.516466	red	0	down	down	GLO	right	close	1	intact	intact	5e28083f-f416-4168-bfde-2e1ddfaaf60e_fps_avg_aud.mp4	0	0	0.799786	0	1	up	blue	0	0	0
404	2	14	1	self	0.5	0.516669	green	1	left	left	GLO	left	far	1	intact	intact	1ad967f4-1728-4eb7-88a5-9d6ad488c3b4_fps_avg_aud.mp4	0	0	1.23313	0	1	right	green	1	0	0
404	2	15	1	self	0.5	0.517106	yellow	0	left	left	GLO	right	far	1	intact	intact	Dec25_fps_avg_aud.mp4	0	0	0.833853	0	1	left	yellow	1	0	0
404	2	16	1	self	0.5	0.516569	red	1	right	right	GLO	left	close	1	intact	intact	August_3_2016_fps_avg_aud.mp4	0	0	1.58489	0	1	up	blue	0	0	0
404	2	17	1	self	1.5	1.51677	green	1	down	down	GLO	right	close	1	intact	intact	f5740bdb-f6a7-4842-9fa8-065f8eed57f4_fps_avg_aud.mp4	0	0	1.06674	0	1	left	yellow	0	0	0
404	2	18	1	self	1.5	1.51686	blue	1	down	down	GLO	right	close	1	intact	intact	Nmarch1222015_fps_avg_aud.mp4	0	0	1.21016	0	1	down	red	0	0	0
404	2	19	1	self	1.5	1.51634	blue	0	up	up	GLO	left	close	1	intact	intact	8e8c5e28-7fba-491b-88f9-891e8e26ddbd_fps_avg_aud.mp4	0	0	1.78384	0	1	down	red	0	0	0
404	2	20	1	self	1.5	1.51617	green	0	right	right	GLO	right	close	1	intact	intact	June_2016_(1)_fps_avg_aud.mp4	0	0	2.99524	0	1	right	green	1	0	0
404	2	21	1	self	1.5	1.5166	green	1	up	up	GLO	right	close	1	intact	intact	January_2016_(2)_fps_avg_aud.mp4	0	0	1.56164	0	1	right	green	1	0	0
404	2	22	1	self	1.5	1.51765	yellow	0	left	left	GLO	right	far	1	intact	intact	17cc3183-9fa6-42da-8814-3bcbf562eceb_fps_avg_aud.mp4	0	0	0.733174	0	1	left	yellow	1	0	0
404	2	23	1	self	1.5	1.51624	blue	0	up	up	GLO	left	close	1	intact	intact	Nov1_fps_avg_aud.mp4	0	0	1.73316	0	1	down	red	0	0	0
404	2	24	1	self	1.5	1.51738	red	1	up	up	GLO	right	close	1	intact	intact	31c3bae2-faf4-4718-b53b-2e88624b3fa5_fps_avg_aud.mp4	0	0	1.94949	0	1	up	blue	0	0	0
404	2	25	1	self	1.5	1.51677	blue	0	up	up	GLO	left	close	1	intact	intact	0602c0a8-082a-4bca-9f5b-70795017698f_fps_avg_aud.mp4	0	0	1.86599	0	1	down	red	0	0	0
404	2	26	1	self	1.5	NaN	yellow	1	up	up	GLO	none	close	1	intact	intact	Jan20_fps_avg_aud.mp4	0	0	NaN	NaN	NaN	none	none	NaN	0	0
404	2	27	1	self	1.5	NaN	green	0	right	right	GLO	none	far	1	intact	intact	September_2016_(2)_fps_avg_aud.mp4	0	0	NaN	NaN	NaN	none	none	NaN	0	0
404	2	28	1	self	1.5	NaN	blue	1	right	right	GLO	none	far	1	intact	intact	Jun16_fps_avg_aud.mp4	0	0	NaN	NaN	NaN	none	none	NaN	0	0
404	2	29	1	self	1.5	NaN	green	0	right	right	GLO	none	far	1	intact	intact	05a4f0ad-5d14-4bd5-8c2b-7db284b369ce_fps_avg_aud.mp4	0	0	NaN	NaN	NaN	none	none	NaN	0	0
404	2	30	1	self	1.5	NaN	blue	0	up	up	GLO	none	close	1	intact	intact	d928ad07-fccb-4758-905a-ca2e2f1c06b6_fps_avg_aud.mp4	0	0	NaN	NaN	NaN	none	none	NaN	0	0
404	2	31	1	self	1.5	NaN	yellow	1	up	up	GLO	none	close	1	intact	intact	bca3f84c-663e-49dd-9b23-05262dbf1e96_fps_avg_aud.mp4	0	0	NaN	NaN	NaN	none	none	NaN	0	0
404	2	32	1	self	1.5	NaN	red	0	down	down	GLO	none	far	1	intact	intact	43373659-2842-4fad-950a-4472afef2f38_fps_avg_aud.mp4	0	0	NaN	NaN	NaN	none	none	NaN	0	0
404	2	33	1	self	1.5	NaN	blue	1	down	down	GLO	none	close	1	intact	intact	023396f6-bdb5-478d-a725-e32d4f6b7be9_fps_avg_aud.mp4	0	0	NaN	NaN	NaN	none	none	NaN	0	0
404	2	34	1	self	1.5	NaN	red	1	right	right	GLO	none	close	1	intact	intact	Aug30_fps_avg_aud.mp4	0	0	NaN	NaN	NaN	none	none	NaN	0	0
404	2	35	1	self	1.5	NaN	green	1	left	left	GLO	none	far	1	intact	intact	19665232-505f-47ba-bfb2-2e9668369ce4_fps_avg_aud.mp4	0	0	NaN	NaN	NaN	none	none	NaN	0	0
404	2	36	1	self	1.5	NaN	green	0	right	right	GLO	none	close	1	intact	intact	a444c8a7-2f60-4193-8052-530d5b35ed4c_fps_avg_aud.mp4	0	0	NaN	NaN	NaN	none	none	NaN	0	0
404	2	37	1	self	1.5	NaN	red	1	left	left	GLO	none	close	1	intact	intact	5b4edd74-dc10-4920-b508-c0b2f21238c3_fps_avg_aud.mp4	0	0	NaN	NaN	NaN	none	none	NaN	0	0
404	2	38	1	self	1.5	NaN	blue	1	left	left	GLO	none	far	1	intact	intact	58fa2b05-06d6-4325-b14b-27b0a9645ea5_fps_avg_aud.mp4	0	0	NaN	NaN	NaN	none	none	NaN	0	0
404	2	39	1	self	1.5	NaN	blue	1	down	down	GLO	none	close	1	intact	intact	May_30_2016_fps_avg_aud.mp4	0	0	NaN	NaN	NaN	none	none	NaN	0	0
404	2	40	1	self	1.5	NaN	yellow	0	left	left	GLO	none	far	1	intact	intact	e3992607-d25b-430c-bd18-12cb4a6d1b28_fps_avg_aud.mp4	0	0	NaN	NaN	NaN	none	none	NaN	0	0
404	2	41	1	self	1.5	NaN	blue	0	up	up	GLO	none	far	1	intact	intact	Apr7_fps_avg_aud.mp4	0	0	NaN	NaN	NaN	none	none	NaN	0	0
404	2	42	1	self	1.5	NaN	red	0	down	down	GLO	none	far	1	intact	intact	53f27130-5392-4410-b48f-90a712697cfb_fps_avg_aud.mp4	0	0	NaN	NaN	NaN	none	none	NaN	0	0
404	2	43	1	self	1.5	NaN	blue	1	left	left	GLO	none	close	1	intact	intact	Dec27_fps_avg_aud.mp4	0	0	NaN	NaN	NaN	none	none	NaN	0	0
404	2	44	1	self	1.5	NaN	blue	1	left	left	GLO	none	far	1	intact	intact	2ee32cdc-eb1b-4b14-b0d7-fb25b7ed46e3_fps_avg_aud.mp4	0	0	NaN	NaN	NaN	none	none	NaN	0	0
404	2	45	1	self	1.5	NaN	yellow	0	left	left	GLO	none	close	1	intact	intact	May11_fps_avg_aud.mp4	0	0	NaN	NaN	NaN	none	none	NaN	0	0
404	2	46	1	self	1.5	NaN	yellow	1	down	down	GLO	none	far	1	intact	intact	b35409aa-6325-4736-bc0d-526af5b26b83_fps_avg_aud.mp4	0	0	NaN	NaN	NaN	none	none	NaN	0	0
404	2	47	1	self	1.5	NaN	green	0	right	right	GLO	none	far	1	intact	intact	24d66d05-cb47-4803-b009-da6ae79affa7_fps_avg_aud.mp4	0	0	NaN	NaN	NaN	none	none	NaN	0	0
404	2	48	1	self	1.5	NaN	green	0	right	right	GLO	none	far	1	intact	intact	b8f7a383-ba3e-49db-977d-18cbd8702864_fps_avg_aud.mp4	0	0	NaN	NaN	NaN	none	none	NaN	0	0
404	2	49	1	self	1.5	NaN	red	0	down	down	GLO	none	far	1	intact	intact	Dec13_fps_avg_aud.mp4	0	0	NaN	NaN	NaN	none	none	NaN	0	0
404	2	50	1	self	1.5	NaN	green	0	right	right	GLO	none	close	1	intact	intact	b23c9ea6-adb6-492c-965f-16af3f7801e9_fps_avg_aud.mp4	0	0	NaN	NaN	NaN	none	none	NaN	0	0
404	2	51	1	self	1.5	NaN	green	0	right	right	GLO	none	far	1	intact	intact	d4f25bdd-9060-452d-8b9a-299b4d79a939_fps_avg_aud.mp4	0	0	NaN	NaN	NaN	none	none	NaN	0	0
404	2	52	1	self	1.5	NaN	green	1	down	down	GLO	none	close	1	intact	intact	33a33f4c-72c6-457d-828e-a576d3e3a8e3_fps_avg_aud.mp4	0	0	NaN	NaN	NaN	none	none	NaN	0	0
404	2	53	1	self	1.5	NaN	blue	1	down	down	GLO	none	close	1	intact	intact	May25_fps_avg_aud.mp4	0	0	NaN	NaN	NaN	none	none	NaN	0	0
404	2	54	1	self	1.5	NaN	red	0	down	down	GLO	none	far	1	intact	intact	cc1b0f3f-4b74-4315-bb6b-f6c5624cbee1(1)_fps_avg_aud.mp4	0	0	NaN	NaN	NaN	none	none	NaN	0	0
404	2	55	1	self	1.5	NaN	blue	1	down	down	GLO	none	far	1	intact	intact	Oct19_fps_avg_aud.mp4	0	0	NaN	NaN	NaN	none	none	NaN	0	0
404	2	56	1	self	1.5	NaN	green	0	right	right	GLO	none	far	1	intact	intact	deff750b-b4a4-440e-a47d-eb4c56f93a9d_fps_avg_aud.mp4	0	0	NaN	NaN	NaN	none	none	NaN	0	0
404	2	57	1	self	1.5	NaN	yellow	0	left	left	GLO	none	close	1	intact	intact	039e9adf-0d8d-4d86-a59c-e7770b0ae616_fps_avg_aud.mp4	0	0	NaN	NaN	NaN	none	none	NaN	0	0
404	2	58	1	self	1.5	NaN	green	0	right	right	GLO	none	close	1	intact	intact	c6481c95-a5c1-4e4c-bc78-4d2184182dd4_fps_avg_aud.mp4	0	0	NaN	NaN	NaN	none	none	NaN	0	0
404	2	59	1	self	1.5	NaN	green	0	right	right	GLO	none	far	1	intact	intact	ac2b9dfa-7a4b-40ef-9499-c883a9127ad7_fps_avg_aud.mp4	0	0	NaN	NaN	NaN	none	none	NaN	0	0
404	2	60	1	self	1.5	NaN	yellow	1	right	right	GLO	none	far	1	intact	intact	91a36f37-93be-4754-9ddb-f173f29574e1_fps_avg_aud.mp4	0	0	NaN	NaN	NaN	none	none	NaN	0	0
404	2	61	1	self	1.5	NaN	yellow	1	right	right	GLO	none	far	1	intact	intact	may_28_2015_fps_avg_aud.mp4	0	0	NaN	NaN	NaN	none	none	NaN	0	0
404	2	62	1	self	1.5	NaN	yellow	1	up	up	GLO	none	far	1	intact	intact	April_20015_fps_avg_aud.mp4	0	0	NaN	NaN	NaN	none	none	NaN	0	0
404	2	63	1	self	1.5	NaN	blue	0	up	up	GLO	none	close	1	intact	intact	may_25_2015_fps_avg_aud.mp4	0	0	NaN	NaN	NaN	none	none	NaN	0	0
404	2	64	1	self	1.5	NaN	red	1	left	left	GLO	none	close	1	intact	intact	637444dd-82ca-432a-beab-7eb721de8b71_fps_avg_aud.mp4	0	0	NaN	NaN	NaN	none	none	NaN	0	0
404	2	65	1	self	1.5	NaN	blue	0	up	up	GLO	none	close	1	intact	intact	86e20a10-46be-4f52-b05b-06877412cf60_fps_avg_aud.mp4	0	0	NaN	NaN	NaN	none	none	NaN	0	0
404	2	66	1	self	1.5	NaN	blue	0	up	up	GLO	none	far	1	intact	intact	06fe833b-37ac-4f46-b915-fda1c2b107fe_fps_avg_aud.mp4	0	0	NaN	NaN	NaN	none	none	NaN	0	0
404	2	67	1	self	1.5	NaN	yellow	0	left	left	GLO	none	close	1	intact	intact	jun14_fps_avg_aud.mp4	0	0	NaN	NaN	NaN	none	none	NaN	0	0
404	2	68	1	self	1.5	NaN	green	0	right	right	GLO	none	close	1	intact	intact	Sep27_fps_avg_aud.mp4	0	0	NaN	NaN	NaN	none	none	NaN	0	0
404	2	69	1	self	1.5	NaN	yellow	0	left	left	GLO	none	close	1	intact	intact	99e5912a-fa6d-43dc-a1df-f887e6ef8a00_fps_avg_aud.mp4	0	0	NaN	NaN	NaN	none	none	NaN	0	0
404	2	70	1	self	1.5	NaN	blue	0	up	up	GLO	none	far	1	intact	intact	bbadcc83-10bb-4a2d-a28a-1d6b44f33770_fps_avg_aud.mp4	0	0	NaN	NaN	NaN	none	none	NaN	0	0
404	2	71	1	self	1.5	NaN	blue	1	down	down	GLO	none	close	1	intact	intact	fd318c50-e133-4dc8-918b-b97094aebdf0_fps_avg_aud.mp4	0	0	NaN	NaN	NaN	none	none	NaN	0	0
404	2	72	1	self	1.5	NaN	green	0	right	right	GLO	none	close	1	intact	intact	Sep30_fps_avg_aud.mp4	0	0	NaN	NaN	NaN	none	none	NaN	0	0
404	2	73	1	self	1.5	NaN	yellow	0	left	left	GLO	none	far	1	intact	intact	Jan8_fps_avg_aud.mp4	0	0	NaN	NaN	NaN	none	none	NaN	0	0
404	2	74	1	self	1.5	NaN	blue	0	up	up	GLO	none	close	1	intact	intact	8ef19348-df54-46b9-9672-f236fb24f042_fps_avg_aud.mp4	0	0	NaN	NaN	NaN	none	none	NaN	0	0
404	2	75	1	self	1.5	NaN	green	0	right	right	GLO	none	close	1	intact	intact	e9f06abd-24bb-46d2-ac8b-3a473a758d7e_fps_avg_aud.mp4	0	0	NaN	NaN	NaN	none	none	NaN	0	0
404	2	76	1	self	1.5	NaN	yellow	0	left	left	GLO	none	far	1	intact	intact	a390325a-c9a6-4240-9459-3271767e2980_fps_avg_aud.mp4	0	0	NaN	NaN	NaN	none	none	NaN	0	0
404	2	77	1	self	1.5	NaN	red	1	up	up	GLO	none	far	1	intact	intact	January_2016_(4)_fps_avg_aud.mp4	0	0	NaN	NaN	NaN	none	none	NaN	0	0
404	2	78	1	self	1.5	NaN	green	0	right	right	GLO	none	far	1	intact	intact	Feb8_fps_avg_aud.mp4	0	0	NaN	NaN	NaN	none	none	NaN	0	0
404	2	79	1	self	1.5	NaN	blue	1	down	down	GLO	none	far	1	intact	intact	34cddff1-7a1a-4e71-be66-8a745a1d42f4_fps_avg_aud.mp4	0	0	NaN	NaN	NaN	none	none	NaN	0	0
404	2	80	1	self	1.5	NaN	green	1	down	down	GLO	none	far	1	intact	intact	63b4d034-af4a-4a03-8aa0-83818020367c_fps_avg_aud.mp4	0	0	NaN	NaN	NaN	none	none	NaN	0	0
404	2	81	1	self	1.5	NaN	yellow	0	left	left	GLO	none	close	1	intact	intact	Dec4_fps_avg_aud.mp4	0	0	NaN	NaN	NaN	none	none	NaN	0	0
404	2	82	1	self	1.5	NaN	yellow	0	left	left	GLO	none	far	1	intact	intact	May_2016_(1)_fps_avg_aud.mp4	0	0	NaN	NaN	NaN	none	none	NaN	0	0
404	2	83	1	self	1.5	NaN	red	1	left	left	GLO	none	far	1	intact	intact	667c6586-78bc-49b6-b207-12bdfa8fdd9e_fps_avg_aud.mp4	0	0	NaN	NaN	NaN	none	none	NaN	0	0
404	2	84	1	self	1.5	NaN	yellow	0	left	left	GLO	none	far	1	intact	intact	5901a51f-f684-46c5-8a4f-abc4c05199d0_fps_avg_aud.mp4	0	0	NaN	NaN	NaN	none	none	NaN	0	0
404	2	85	1	self	1.5	NaN	blue	0	up	up	GLO	none	far	1	intact	intact	June_2016_(2)_fps_avg_aud.mp4	0	0	NaN	NaN	NaN	none	none	NaN	0	0
404	2	86	1	self	1.5	NaN	blue	0	up	up	GLO	none	far	1	intact	intact	9bd7a199-78f1-4f14-9fde-3a11c0ebd236_fps_avg_aud.mp4	0	0	NaN	NaN	NaN	none	none	NaN	0	0
404	2	87	1	self	1.5	NaN	yellow	1	down	down	GLO	none	far	1	intact	intact	4d617426-ab8c-4125-9dcf-178529ca54a1_fps_avg_aud.mp4	0	0	NaN	NaN	NaN	none	none	NaN	0	0
404	2	88	1	self	1.5	NaN	green	0	right	right	GLO	none	far	1	intact	intact	210cd477-4b9d-42a8-810f-6df0d7615942_fps_avg_aud.mp4	0	0	NaN	NaN	NaN	none	none	NaN	0	0
404	2	89	1	self	1.5	NaN	yellow	1	up	up	GLO	none	far	1	intact	intact	July27_fps_avg_aud.mp4	0	0	NaN	NaN	NaN	none	none	NaN	0	0
404	2	90	1	self	1.5	NaN	yellow	1	up	up	GLO	none	far	1	intact	intact	jun13_fps_avg_aud.mp4	0	0	NaN	NaN	NaN	none	none	NaN	0	0
404	2	91	1	self	1.5	NaN	red	0	down	down	GLO	none	far	1	intact	intact	7720ddf1-f518-43df-bdba-7009c0432e63_fps_avg_aud.mp4	0	0	NaN	NaN	NaN	none	none	NaN	0	0
404	2	92	1	self	1.5	NaN	red	1	up	up	GLO	none	far	1	intact	intact	ae455cc0-190e-4a3d-907c-79f241176900_fps_avg_aud.mp4	0	0	NaN	NaN	NaN	none	none	NaN	0	0
404	2	93	1	self	1.5	NaN	red	0	down	down	GLO	none	close	1	intact	intact	a36f5f1c-60eb-41c0-8ed1-09a4e01342bc_fps_avg_aud.mp4	0	0	NaN	NaN	NaN	none	none	NaN	0	0
404	3	1	1	auto	0.5	0.516724	blue	0	up	up	GLO	right	far	1	intact	intact	Jul10_fps_avg_aud.mp4	1	0	1.65721	0	1	down	red	0	0	0
404	3	2	1	auto	0.5	0.517127	red	1	up	up	GLO	left	close	0	intact	none	none	0	0	1.63346	0	1	up	blue	0	0	0
404	3	3	1	auto	0.5	0.516366	green	0	right	right	GLO	left	far	1	intact	intact	942f20a2-a776-400d-9488-0c1647ebd585_fps_avg_aud.mp4	1	0	1.40096	0	1	right	green	1	0	0
404	3	4	1	auto	0.5	0.517787	yellow	0	left	left	GLO	right	far	1	intact	intact	bd5cc988-d64f-435a-a1d7-3a872e473f76_fps_avg_aud.mp4	1	0	1.43303	0	1	up	blue	0	0	0
404	3	5	1	auto	0.5	0.516283	yellow	0	left	left	GLO	right	close	1	intact	intact	980b240d-9e79-4cca-81da-f6d711752962_fps_avg_aud.mp4	1	0	0.753635	0	1	up	blue	0	0	0
404	3	6	1	auto	0.5	0.516699	blue	1	down	down	GLO	right	far	0	intact	none	none	0	0	1.91635	0	1	down	red	0	0	0
404	3	7	1	auto	0.5	0.517201	yellow	0	left	left	GLO	right	close	0	intact	none	none	0	0	0.645488	0	1	left	yellow	1	0	0
404	3	8	1	auto	0.5	0.51707	yellow	1	up	up	GLO	right	far	0	intact	none	none	0	0	0.816518	0	1	left	yellow	1	0	0
404	3	9	1	auto	0.5	0.517209	red	0	down	down	GLO	left	close	0	intact	none	none	0	0	1.94969	0	1	up	blue	0	0	0
404	3	10	1	auto	0.5	0.517059	green	0	right	right	GLO	left	close	1	intact	intact	October_20_2016_fps_avg_aud.mp4	1	0	1.42005	0	1	left	yellow	0	0	0
404	3	11	1	auto	0.5	0.516929	green	1	down	down	GLO	left	close	1	intact	intact	6d873e1d-8ad7-4688-a181-c3322982e4a6_fps_avg_aud.mp4	1	0	0.852773	0	1	left	yellow	0	0	0
404	3	12	1	auto	0.5	0.516911	blue	0	up	up	GLO	left	far	1	intact	intact	July_2015_(1)_fps_avg_aud.mp4	1	0	1.50854	0	1	down	red	0	0	0
404	3	13	1	auto	0.5	0.516026	yellow	1	up	up	GLO	right	close	1	intact	intact	a286ef4d-f7bf-4cc1-b7c2-912b53e8ea4a_fps_avg_aud.mp4	1	47	1.33418	0.177218	2	left	yellow	1	0	0
404	3	14	1	auto	0.5	0.517668	green	0	right	right	GLO	right	far	0	intact	none	none	0	0	0.683684	0	1	right	green	1	0	0
404	3	15	1	auto	0.5	0.516439	blue	0	up	up	GLO	right	far	1	intact	intact	960000ea-ab44-4258-8824-51f8fdf7a806_fps_avg_aud.mp4	1	60	1.95443	0.233718	2	down	red	0	0	0
404	3	16	1	auto	1.5	1.51584	red	0	down	down	GLO	left	far	1	intact	intact	Apr13_fps_avg_aud.mp4	1	0	1.54046	0	1	down	red	1	0	0
404	3	17	1	auto	1.5	1.51661	blue	0	up	up	GLO	right	far	1	intact	intact	July23_fps_avg_aud.mp4	1	32	1.74448	0.133049	2	down	red	0	0	0
404	3	18	1	auto	1.5	1.51601	blue	0	up	up	GLO	left	far	1	intact	intact	4d7a8a8c-063f-4a89-bd24-c32713b6ffa7_fps_avg_aud.mp4	1	0	1.76715	0	1	down	red	0	0	0
404	3	19	1	auto	1.5	1.51696	yellow	1	up	up	GLO	right	close	1	intact	intact	de0e4ce1-0f87-4077-b69c-578049fe4691_fps_avg_aud.mp4	1	0	1.23257	0	1	left	yellow	1	0	0
404	3	20	1	auto	1.5	1.51655	blue	0	up	up	GLO	left	far	1	intact	intact	fd318c50-e133-4dc8-918b-b97094aebdf0_fps_avg_aud.mp4	1	0	1.50839	0	1	down	red	0	0	0
404	3	21	1	auto	1.5	1.51678	blue	1	right	right	GLO	left	far	0	intact	none	none	0	0	0.899418	0	1	down	red	0	0	0
404	3	22	1	auto	1.5	1.51686	blue	1	down	down	GLO	left	close	1	intact	intact	5e28083f-f416-4168-bfde-2e1ddfaaf60e_fps_avg_aud.mp4	1	0	0.933227	0	1	down	red	0	0	0
404	3	23	1	auto	1.5	1.51677	blue	0	up	up	GLO	right	close	0	intact	none	none	0	0	1.17863	0	1	down	red	0	0	0
404	3	24	1	auto	1.5	1.51588	yellow	0	left	left	GLO	right	close	1	intact	intact	919b74e0-dd30-4685-b063-8556e1e10c55_fps_avg_aud.mp4	1	85	1.51702	0.366884	2	left	yellow	1	0	0
404	3	25	1	auto	1.5	1.51591	blue	0	up	up	GLO	right	close	0	intact	none	none	0	0	3.13392	0	1	down	red	0	0	0
404	3	26	1	auto	1.5	NaN	green	0	right	right	GLO	none	close	1	intact	intact	august_15_2016_fps_avg_aud.mp4	0	0	NaN	NaN	NaN	none	none	NaN	0	0
404	3	27	1	auto	1.5	NaN	blue	0	up	up	GLO	none	close	1	intact	intact	7cff1761-7eb4-4352-9fd6-437bff370f37_fps_avg_aud.mp4	0	0	NaN	NaN	NaN	none	none	NaN	0	0
404	3	28	1	auto	1.5	NaN	blue	0	up	up	GLO	none	far	1	intact	intact	37d023e5-2b94-437c-b04e-88100eb5850b_fps_avg_aud.mp4	0	0	NaN	NaN	NaN	none	none	NaN	0	0
404	3	29	1	auto	1.5	NaN	red	1	up	up	GLO	none	close	1	intact	intact	July_2016_fps_avg_aud.mp4	0	0	NaN	NaN	NaN	none	none	NaN	0	0
404	3	30	1	auto	1.5	NaN	red	1	left	left	GLO	none	far	0	intact	none	none	0	0	NaN	NaN	NaN	none	none	NaN	0	0
404	3	31	1	auto	1.5	NaN	blue	1	right	right	GLO	none	far	1	intact	intact	705c0056-c7dd-4090-a27e-8956e33cb4b0_fps_avg_aud.mp4	0	0	NaN	NaN	NaN	none	none	NaN	0	0
404	3	32	1	auto	1.5	NaN	red	1	left	left	GLO	none	far	0	intact	none	none	0	0	NaN	NaN	NaN	none	none	NaN	0	0
404	3	33	1	auto	1.5	NaN	red	0	down	down	GLO	none	far	1	intact	intact	5c88b1ee-81ac-4658-85d2-80068b2841d0_fps_avg_aud.mp4	0	0	NaN	NaN	NaN	none	none	NaN	0	0
404	3	34	1	auto	1.5	NaN	yellow	1	down	down	GLO	none	close	1	intact	intact	76b50970-7143-4993-96e1-54ee18b8278e_fps_avg_aud.mp4	0	0	NaN	NaN	NaN	none	none	NaN	0	0
404	3	35	1	auto	1.5	NaN	yellow	1	right	right	GLO	none	close	0	intact	none	none	0	0	NaN	NaN	NaN	none	none	NaN	0	0
404	3	36	1	auto	1.5	NaN	red	1	up	up	GLO	none	close	1	intact	intact	326ee18c-0cd5-4c39-ac0f-082f53449aa4_fps_avg_aud.mp4	0	0	NaN	NaN	NaN	none	none	NaN	0	0
404	3	37	1	auto	1.5	NaN	blue	1	down	down	GLO	none	far	0	intact	none	none	0	0	NaN	NaN	NaN	none	none	NaN	0	0
404	3	38	1	auto	1.5	NaN	blue	0	up	up	GLO	none	close	1	intact	intact	959dfee9-c1d0-4643-9cbd-f9e818b706fa_fps_avg_aud.mp4	0	0	NaN	NaN	NaN	none	none	NaN	0	0
404	3	39	1	auto	1.5	NaN	red	1	up	up	GLO	none	close	1	intact	intact	june_19_2015_fps_avg_aud.mp4	0	0	NaN	NaN	NaN	none	none	NaN	0	0
404	3	40	1	auto	1.5	NaN	green	0	right	right	GLO	none	close	1	intact	intact	Jun19_fps_avg_aud.mp4	0	0	NaN	NaN	NaN	none	none	NaN	0	0
404	3	41	1	auto	1.5	NaN	blue	1	down	down	GLO	none	close	1	intact	intact	July21_fps_avg_aud.mp4	0	0	NaN	NaN	NaN	none	none	NaN	0	0
404	3	42	1	auto	1.5	NaN	blue	1	down	down	GLO	none	far	1	intact	intact	533b0238-357b-409c-8d86-25285970eb98_fps_avg_aud.mp4	0	0	NaN	NaN	NaN	none	none	NaN	0	0
404	3	43	1	auto	1.5	NaN	yellow	0	left	left	GLO	none	far	0	intact	none	none	0	0	NaN	NaN	NaN	none	none	NaN	0	0
404	3	44	1	auto	1.5	NaN	green	0	right	right	GLO	none	far	1	intact	intact	02831e99-5ac8-4fc5-9e76-9a04224fb33e_fps_avg_aud.mp4	0	0	NaN	NaN	NaN	none	none	NaN	0	0
404	3	45	1	auto	1.5	NaN	red	1	up	up	GLO	none	close	1	intact	intact	8021b6b2-93f5-4b8a-981e-576768624e6e_fps_avg_aud.mp4	0	0	NaN	NaN	NaN	none	none	NaN	0	0
404	3	46	1	auto	1.5	NaN	green	1	up	up	GLO	none	close	1	intact	intact	ac670a32-9758-4aa8-b876-775cfe4f2e47_fps_avg_aud.mp4	0	0	NaN	NaN	NaN	none	none	NaN	0	0
404	3	47	1	auto	1.5	NaN	blue	0	up	up	GLO	none	far	0	intact	none	none	0	0	NaN	NaN	NaN	none	none	NaN	0	0
404	3	48	1	auto	1.5	NaN	yellow	0	left	left	GLO	none	close	1	intact	intact	Feb11_fps_avg_aud.mp4	0	0	NaN	NaN	NaN	none	none	NaN	0	0
404	3	49	1	auto	1.5	NaN	green	0	right	right	GLO	none	close	1	intact	intact	7b9f55fa-3ddf-4c84-bb13-2413d53cbf75_fps_avg_aud.mp4	0	0	NaN	NaN	NaN	none	none	NaN	0	0
404	3	50	1	auto	1.5	NaN	green	0	right	right	GLO	none	close	1	intact	intact	31c3bae2-faf4-4718-b53b-2e88624b3fa5_fps_avg_aud.mp4	0	0	NaN	NaN	NaN	none	none	NaN	0	0
404	3	51	1	auto	1.5	NaN	green	1	up	up	GLO	none	far	0	intact	none	none	0	0	NaN	NaN	NaN	none	none	NaN	0	0
404	3	52	1	auto	1.5	NaN	yellow	1	down	down	GLO	none	far	1	intact	intact	Oct31_fps_avg_aud.mp4	0	0	NaN	NaN	NaN	none	none	NaN	0	0
404	3	53	1	auto	1.5	NaN	yellow	1	down	down	GLO	none	far	1	intact	intact	24d66d05-cb47-4803-b009-da6ae79affa7_fps_avg_aud.mp4	0	0	NaN	NaN	NaN	none	none	NaN	0	0
404	3	54	1	auto	1.5	NaN	blue	0	up	up	GLO	none	far	0	intact	none	none	0	0	NaN	NaN	NaN	none	none	NaN	0	0
404	3	55	1	auto	1.5	NaN	green	1	down	down	GLO	none	close	1	intact	intact	April_2015_(1)_fps_avg_aud.mp4	0	0	NaN	NaN	NaN	none	none	NaN	0	0
404	3	56	1	auto	1.5	NaN	red	0	down	down	GLO	none	far	1	intact	intact	af8a1933-c829-43c1-8393-4abd55081a1d_fps_avg_aud.mp4	0	0	NaN	NaN	NaN	none	none	NaN	0	0
404	3	57	1	auto	1.5	NaN	red	1	up	up	GLO	none	close	0	intact	none	none	0	0	NaN	NaN	NaN	none	none	NaN	0	0
404	3	58	1	auto	1.5	NaN	red	1	left	left	GLO	none	far	1	intact	intact	Jun24_fps_avg_aud.mp4	0	0	NaN	NaN	NaN	none	none	NaN	0	0
404	3	59	1	auto	1.5	NaN	yellow	0	left	left	GLO	none	far	0	intact	none	none	0	0	NaN	NaN	NaN	none	none	NaN	0	0
404	3	60	1	auto	1.5	NaN	red	1	right	right	GLO	none	close	1	intact	intact	Nov6_fps_avg_aud.mp4	0	0	NaN	NaN	NaN	none	none	NaN	0	0
404	3	61	1	auto	1.5	NaN	yellow	0	left	left	GLO	none	close	0	intact	none	none	0	0	NaN	NaN	NaN	none	none	NaN	0	0
404	3	62	1	auto	1.5	NaN	green	1	left	left	GLO	none	far	1	intact	intact	334b06e5-5a99-4c23-b82f-0b02017f9d2e_fps_avg_aud.mp4	0	0	NaN	NaN	NaN	none	none	NaN	0	0
404	3	63	1	auto	1.5	NaN	blue	0	up	up	GLO	none	far	1	intact	intact	d59b9ee2-e1af-4171-a59e-9daefced695e_fps_avg_aud.mp4	0	0	NaN	NaN	NaN	none	none	NaN	0	0
404	3	64	1	auto	1.5	NaN	yellow	1	up	up	GLO	none	close	1	intact	intact	Jan4_fps_avg_aud.mp4	0	0	NaN	NaN	NaN	none	none	NaN	0	0
404	3	65	1	auto	1.5	NaN	red	0	down	down	GLO	none	far	1	intact	intact	8c9efcf8-40ef-4975-90f5-9d2449140a05_fps_avg_aud.mp4	0	0	NaN	NaN	NaN	none	none	NaN	0	0
404	3	66	1	auto	1.5	NaN	green	0	right	right	GLO	none	far	0	intact	none	none	0	0	NaN	NaN	NaN	none	none	NaN	0	0
404	3	67	1	auto	1.5	NaN	red	0	down	down	GLO	none	far	1	intact	intact	86e20a10-46be-4f52-b05b-06877412cf60_fps_avg_aud.mp4	0	0	NaN	NaN	NaN	none	none	NaN	0	0
404	3	68	1	auto	1.5	NaN	yellow	1	down	down	GLO	none	far	0	intact	none	none	0	0	NaN	NaN	NaN	none	none	NaN	0	0
404	3	69	1	auto	1.5	NaN	blue	0	up	up	GLO	none	far	1	intact	intact	79665cdb-61c8-40fb-9ffc-0682e57caf2f_fps_avg_aud.mp4	0	0	NaN	NaN	NaN	none	none	NaN	0	0
404	3	70	1	auto	1.5	NaN	blue	0	up	up	GLO	none	far	1	intact	intact	8131cc16-56a9-45d8-8dab-20ead5938e0a_fps_avg_aud.mp4	0	0	NaN	NaN	NaN	none	none	NaN	0	0
404	3	71	1	auto	1.5	NaN	yellow	0	left	left	GLO	none	close	0	intact	none	none	0	0	NaN	NaN	NaN	none	none	NaN	0	0
404	3	72	1	auto	1.5	NaN	red	1	left	left	GLO	none	far	1	intact	intact	april_23_2015_fps_avg_aud.mp4	0	0	NaN	NaN	NaN	none	none	NaN	0	0
404	3	73	1	auto	1.5	NaN	red	0	down	down	GLO	none	close	1	intact	intact	2d9948f5-94d5-495f-a74e-80174a3c508a_fps_avg_aud.mp4	0	0	NaN	NaN	NaN	none	none	NaN	0	0
404	3	74	1	auto	1.5	NaN	yellow	0	left	left	GLO	none	close	1	intact	intact	c1a7aae7-8c3e-4488-9566-07a14f982e35_fps_avg_aud.mp4	0	0	NaN	NaN	NaN	none	none	NaN	0	0
404	3	75	1	auto	1.5	NaN	green	0	right	right	GLO	none	far	1	intact	intact	Apr16_fps_avg_aud.mp4	0	0	NaN	NaN	NaN	none	none	NaN	0	0
404	3	76	1	auto	1.5	NaN	yellow	1	down	down	GLO	none	close	1	intact	intact	Aug18_fps_avg_aud.mp4	0	0	NaN	NaN	NaN	none	none	NaN	0	0
404	3	77	1	auto	1.5	NaN	green	0	right	right	GLO	none	close	1	intact	intact	33d05c43-ee7c-4877-9419-344c4009c91e_fps_avg_aud.mp4	0	0	NaN	NaN	NaN	none	none	NaN	0	0
404	3	78	1	auto	1.5	NaN	green	0	right	right	GLO	none	far	1	intact	intact	16ad27d6-0718-41b8-94e7-1c37789ce6cb_fps_avg_aud.mp4	0	0	NaN	NaN	NaN	none	none	NaN	0	0
404	3	79	1	auto	1.5	NaN	green	1	up	up	GLO	none	close	1	intact	intact	11bc07f6-cbc9-48b9-a240-792e373d6a2a_fps_avg_aud.mp4	0	0	NaN	NaN	NaN	none	none	NaN	0	0
404	3	80	1	auto	1.5	NaN	green	1	left	left	GLO	none	far	1	intact	intact	6189325b-e315-4417-8d81-a8cae54059df_fps_avg_aud.mp4	0	0	NaN	NaN	NaN	none	none	NaN	0	0
404	3	81	1	auto	1.5	NaN	green	0	right	right	GLO	none	far	0	intact	none	none	0	0	NaN	NaN	NaN	none	none	NaN	0	0
404	3	82	1	auto	1.5	NaN	red	1	right	right	GLO	none	far	1	intact	intact	Nov9_fps_avg_aud.mp4	0	0	NaN	NaN	NaN	none	none	NaN	0	0
404	3	83	1	auto	1.5	NaN	blue	0	up	up	GLO	none	far	1	intact	intact	bbadcc83-10bb-4a2d-a28a-1d6b44f33770_fps_avg_aud.mp4	0	0	NaN	NaN	NaN	none	none	NaN	0	0
404	3	84	1	auto	1.5	NaN	red	0	down	down	GLO	none	far	1	intact	intact	1c37d23d-fc2a-4933-8024-0106ebebe6c4_fps_avg_aud.mp4	0	0	NaN	NaN	NaN	none	none	NaN	0	0
404	3	85	1	auto	1.5	NaN	yellow	0	left	left	GLO	none	far	1	intact	intact	f22090a0-ec04-4dfd-99ca-7810b9650ec8_fps_avg_aud.mp4	0	0	NaN	NaN	NaN	none	none	NaN	0	0
404	3	86	1	auto	1.5	NaN	green	1	down	down	GLO	none	close	1	intact	intact	b1dabac3-204f-4571-b892-69eb87e805d0_fps_avg_aud.mp4	0	0	NaN	NaN	NaN	none	none	NaN	0	0
404	3	87	1	auto	1.5	NaN	red	0	down	down	GLO	none	close	1	intact	intact	cfde3402-3742-4dda-82a3-7c69c497e0f8_fps_avg_aud.mp4	0	0	NaN	NaN	NaN	none	none	NaN	0	0
404	3	88	1	auto	1.5	NaN	blue	0	up	up	GLO	none	close	1	intact	intact	July3_fps_avg_aud.mp4	0	0	NaN	NaN	NaN	none	none	NaN	0	0
404	3	89	1	auto	1.5	NaN	yellow	1	right	right	GLO	none	far	1	intact	intact	c79830e0-a78a-415b-b7be-95bf79fe1a3a_fps_avg_aud.mp4	0	0	NaN	NaN	NaN	none	none	NaN	0	0
404	3	90	1	auto	1.5	NaN	blue	1	down	down	GLO	none	close	0	intact	none	none	0	0	NaN	NaN	NaN	none	none	NaN	0	0
404	3	91	1	auto	1.5	NaN	yellow	0	left	left	GLO	none	close	0	intact	none	none	0	0	NaN	NaN	NaN	none	none	NaN	0	0
404	3	92	1	auto	1.5	NaN	yellow	0	left	left	GLO	none	far	1	intact	intact	17bc9968-edac-4234-b3eb-c8487676c442_fps_avg_aud.mp4	0	0	NaN	NaN	NaN	none	none	NaN	0	0
404	3	93	1	auto	1.5	NaN	yellow	0	left	left	GLO	none	close	1	intact	intact	Nov24_fps_avg_aud.mp4	0	0	NaN	NaN	NaN	none	none	NaN	0	0
404	4	1	0	self	0.5	0.516055	blue	1	right	right	GLO	right	close	1	intact	intact	e8afc4ba-88ff-4bff-928a-27c2c4fe446f_fps_avg_aud.mp4	0	0	1.38413	0	1	up	blue	1	0.001	low
404	4	2	0	self	0.5	0.515963	blue	0	up	up	GLO	right	close	1	intact	intact	cfead01b-2f72-4131-8069-3f2052f352e3_fps_avg_aud.mp4	0	0	0.884378	0	1	up	blue	1	0.002	low
404	4	3	0	self	0.5	0.516145	blue	1	left	left	GLO	right	close	1	intact	intact	Jun20_fps_avg_aud.mp4	0	0	0.732343	0	1	up	blue	1	0.003	low
404	4	4	0	self	0.5	0.517217	blue	1	down	down	GLO	right	close	1	intact	intact	Jun16_fps_avg_aud.mp4	0	0	0.533638	0	1	up	blue	1	0.004	low
404	4	5	0	self	0.5	0.516514	blue	0	up	up	GLO	left	close	1	intact	intact	0602c0a8-082a-4bca-9f5b-70795017698f_fps_avg_aud.mp4	0	0	0.56655	0	1	up	blue	1	0.005	low
404	4	6	0	self	0.5	0.516203	blue	0	up	up	GLO	right	close	1	intact	intact	Jun30_fps_avg_aud.mp4	0	0	0.928568	0	1	up	blue	1	0.006	low
404	4	7	0	self	0.5	0.516975	blue	0	up	up	GLO	left	close	1	intact	intact	9e99d645-5200-4298-9c0f-4a18ab570a6d_fps_avg_aud.mp4	0	0	0.449899	0	1	up	blue	1	0.007	low
404	4	8	0	self	0.5	0.516623	red	0	down	down	GLO	right	far	1	intact	intact	June_112016_fps_avg_aud.mp4	0	0	1.15066	0	1	down	red	1	0.008	low
404	4	9	0	self	0.5	0.517021	green	0	right	right	GLO	left	far	1	intact	intact	Jun24_fps_avg_aud.mp4	0	0	1.43345	0	1	right	green	1	0.009	low
404	4	10	0	self	0.5	0.516749	red	1	left	left	GLO	right	far	1	intact	intact	Jan5_fps_avg_aud.mp4	0	0	1.2141	0	1	down	red	1	0.01	low
404	4	11	0	self	0.5	0.516629	yellow	0	left	left	GLO	right	far	1	intact	intact	e5e9435d-267e-4f33-bd02-80f8eeedf363_fps_avg_aud.mp4	0	0	0.900081	0	1	left	yellow	1	0.011	low
404	4	12	0	self	0.5	0.516911	red	0	down	down	GLO	right	far	1	intact	intact	17cc3183-9fa6-42da-8814-3bcbf562eceb_fps_avg_aud.mp4	0	0	1.5337	0	1	down	red	1	0.012	low
404	4	13	0	self	0.5	0.516649	yellow	1	up	up	GLO	right	far	1	intact	intact	8fc730b2-0fc1-4125-9e0e-c9ed1f9ab58a_fps_avg_aud.mp4	0	0	0.983719	0	1	left	yellow	1	0.013	low
404	4	14	0	self	0.5	0.516736	yellow	0	left	left	GLO	right	close	1	intact	intact	b03a76d5-df04-4f1c-a621-096b7428dc43_fps_avg_aud.mp4	0	0	0.549534	0	1	left	yellow	1	0.014	low
404	4	15	0	self	0.5	0.515812	yellow	0	left	left	GLO	left	far	1	intact	intact	Sep30_fps_avg_aud.mp4	0	0	0.491586	0	1	left	yellow	1	0.015	low
404	4	16	0	self	0.5	0.516338	green	1	up	up	GLO	right	close	1	intact	intact	2ad8c2cc-f109-45c5-925b-f1af257730e3_fps_avg_aud.mp4	0	0	1.29958	0	1	right	green	1	0.016	low
404	4	17	0	self	0.5	0.516032	green	0	right	right	GLO	left	far	1	intact	intact	17cb4c50-a413-43aa-8ef1-30df975b04f4_fps_avg_aud.mp4	0	0	0.599649	0	1	right	green	1	0.017	low
404	4	18	0	self	0.5	0.517323	red	0	down	down	GLO	right	close	1	intact	intact	may_28_2015_fps_avg_aud.mp4	0	0	0.942413	0	1	down	red	1	0.018	low
404	4	19	0	self	0.5	0.517353	red	1	left	left	GLO	left	close	1	intact	intact	240bdf76-9a30-49ea-9534-079281412955_fps_avg_aud.mp4	0	0	0.800024	0	1	down	red	1	0.019	low
404	4	20	0	self	0.5	0.517124	blue	0	up	up	GLO	left	close	1	intact	intact	Feb11_fps_avg_aud.mp4	0	0	2.1105	0	1	up	blue	1	0.02	low
404	4	21	0	self	0.5	0.516563	yellow	0	left	left	GLO	right	close	1	intact	intact	d19912fa-a840-4a29-b318-5be5c947f24f_fps_avg_aud.mp4	0	0	0.817556	0	1	left	yellow	1	0.021	low
404	4	22	0	self	0.5	0.516774	yellow	1	right	right	GLO	left	close	1	intact	intact	Mar14_fps_avg_aud.mp4	0	0	0.810477	0	1	left	yellow	1	0.022	low
404	4	23	0	self	0.5	0.515732	yellow	1	down	down	GLO	right	close	1	intact	intact	Oct30_fps_avg_aud.mp4	0	0	0.501057	0	1	left	yellow	1	0.023	low
404	4	24	0	self	0.5	0.516759	red	1	left	left	GLO	left	far	1	intact	intact	01790276-7d56-4063-9522-da49270e2a6b_fps_avg_aud.mp4	0	0	1.96632	0	1	down	red	1	0.024	low
404	4	25	0	self	0.5	0.517512	yellow	0	left	left	GLO	right	far	1	intact	intact	33d05c43-ee7c-4877-9419-344c4009c91e_fps_avg_aud.mp4	0	0	2.01666	0	1	left	yellow	1	0.025	low
404	4	26	0	self	0.5	0.515962	red	0	down	down	GLO	left	close	1	intact	intact	05a4f0ad-5d14-4bd5-8c2b-7db284b369ce_fps_avg_aud.mp4	0	0	1.45054	0	1	up	blue	0	0.024	low
404	4	27	0	self	0.5	0.516044	red	1	up	up	GLO	left	far	1	intact	intact	10110e03-827e-4196-8676-097b68a947cd_fps_avg_aud.mp4	0	0	1.41733	0	1	down	red	1	0.025	low
404	4	28	0	self	0.5	0.517125	yellow	0	left	left	GLO	right	close	1	intact	intact	4db3f410-b7dd-4157-a876-374c50f0a479_fps_avg_aud.mp4	0	0	0.732663	0	1	left	yellow	1	0.026	low
404	4	29	0	self	0.5	0.517542	blue	0	up	up	GLO	left	close	1	intact	intact	5f534c39-dfe8-4a8d-a678-c406bcf9154d_fps_avg_aud.mp4	0	0	0.766641	0	1	up	blue	1	0.027	low
404	4	30	0	self	0.5	0.516977	yellow	0	left	left	GLO	left	far	1	intact	intact	Mar30_fps_avg_aud.mp4	0	0	0.883132	0	1	left	yellow	1	0.028	low
404	4	31	0	self	0.5	0.516747	blue	0	up	up	GLO	right	close	1	intact	intact	34317ec5-8b9d-4b06-8954-49f3b4c2619c_fps_avg_aud.mp4	0	0	1.79964	0	1	up	blue	1	0.029	low
404	4	32	0	self	0.5	0.517263	red	1	up	up	GLO	right	far	1	intact	intact	8c9efcf8-40ef-4975-90f5-9d2449140a05_fps_avg_aud.mp4	0	0	0.649802	0	1	down	red	1	0.03	low
404	4	33	0	self	0.5	0.517544	blue	0	up	up	GLO	right	close	1	intact	intact	August1_fps_avg_aud.mp4	0	0	3.3001	0	1	up	blue	1	0.031	low
404	4	34	0	self	0.5	0.517008	green	0	right	right	GLO	left	far	1	intact	intact	f88c90ff-41f4-4220-a305-426fa931932f_fps_avg_aud.mp4	0	0	0.883223	0	1	right	green	1	0.032	low
404	4	35	0	self	0.5	0.516547	red	1	left	left	GLO	left	close	1	intact	intact	202647f1-9373-4eb4-ac9a-27bf605f227d_fps_avg_aud.mp4	0	0	1.38443	0	1	down	red	1	0.033	low
404	4	36	0	self	0.5	0.516627	yellow	1	up	up	GLO	right	close	1	intact	intact	a3e1ae8d-fc6e-4c2a-a65c-9024b3c9f810_fps_avg_aud.mp4	0	0	1.21699	0	1	left	yellow	1	0.034	low
404	4	37	0	self	0.5	0.516093	green	1	up	up	GLO	left	far	1	intact	intact	Dec26_fps_avg_aud.mp4	0	0	0.684602	0	1	right	green	1	0.035	low
404	4	38	0	self	0.5	NaN	yellow	0	left	left	GLO	none	close	1	intact	intact	342c3db7-0e7e-4cf9-b04c-0d7bba48d8bb_fps_avg_aud.mp4	0	0	NaN	NaN	NaN	none	none	NaN	0.035	low
404	4	39	0	self	0.5	NaN	blue	1	left	left	GLO	none	far	1	intact	intact	61be81ef-2338-498f-a09a-fd23aea0f3ec_fps_avg_aud.mp4	0	0	NaN	NaN	NaN	none	none	NaN	0.035	low
404	4	40	0	self	0.5	NaN	green	1	down	down	GLO	none	far	1	intact	intact	Dec31_fps_avg_aud.mp4	0	0	NaN	NaN	NaN	none	none	NaN	0.035	low
404	4	41	0	self	0.5	NaN	red	1	up	up	GLO	none	close	1	intact	intact	0f23035e-0077-49bd-b516-950aa27b63b5_fps_avg_aud.mp4	0	0	NaN	NaN	NaN	none	none	NaN	0.035	low
404	4	42	0	self	0.5	NaN	green	1	left	left	GLO	none	far	1	intact	intact	aef9b535-d7ad-47d4-adb8-d3ac2abf6652_fps_avg_aud.mp4	0	0	NaN	NaN	NaN	none	none	NaN	0.035	low
404	4	43	0	self	0.5	NaN	red	0	down	down	GLO	none	far	1	intact	intact	May27_fps_avg_aud.mp4	0	0	NaN	NaN	NaN	none	none	NaN	0.035	low
404	4	44	0	self	0.5	NaN	blue	0	up	up	GLO	none	close	1	intact	intact	ab1e6c91-a115-4b2d-8609-b4e2233254d6_fps_avg_aud.mp4	0	0	NaN	NaN	NaN	none	none	NaN	0.035	low
404	4	45	0	self	0.5	NaN	blue	0	up	up	GLO	none	far	1	intact	intact	Jun8_fps_avg_aud.mp4	0	0	NaN	NaN	NaN	none	none	NaN	0.035	low
404	4	46	0	self	0.5	NaN	red	0	down	down	GLO	none	far	1	intact	intact	d021cb9c-36bf-48fb-9474-23511a956f6a_fps_avg_aud.mp4	0	0	NaN	NaN	NaN	none	none	NaN	0.035	low
404	4	47	0	self	0.5	NaN	blue	0	up	up	GLO	none	far	1	intact	intact	f5740bdb-f6a7-4842-9fa8-065f8eed57f4_fps_avg_aud.mp4	0	0	NaN	NaN	NaN	none	none	NaN	0.035	low
404	4	48	0	self	0.5	NaN	red	1	left	left	GLO	none	far	1	intact	intact	856001bb-aa8d-41ae-ad3d-fd9ff39c28c0_fps_avg_aud.mp4	0	0	NaN	NaN	NaN	none	none	NaN	0.035	low
404	4	49	0	self	0.5	NaN	green	1	left	left	GLO	none	far	1	intact	intact	Oct13_fps_avg_aud.mp4	0	0	NaN	NaN	NaN	none	none	NaN	0.035	low
404	4	50	0	self	0.5	NaN	red	0	down	down	GLO	none	far	1	intact	intact	Jan11_fps_avg_aud.mp4	0	0	NaN	NaN	NaN	none	none	NaN	0.035	low
404	4	51	0	self	0.5	NaN	red	0	down	down	GLO	none	far	1	intact	intact	cb6ef54e-2b4c-4064-8d68-1ca2b2e8a47c_fps_avg_aud.mp4	0	0	NaN	NaN	NaN	none	none	NaN	0.035	low
404	4	52	0	self	0.5	NaN	green	1	up	up	GLO	none	close	1	intact	intact	94b03dc1-7d37-4553-b382-cb9494e3b7f1_fps_avg_aud.mp4	0	0	NaN	NaN	NaN	none	none	NaN	0.035	low
404	4	53	0	self	0.5	NaN	yellow	1	right	right	GLO	none	far	1	intact	intact	58fa2b05-06d6-4325-b14b-27b0a9645ea5_fps_avg_aud.mp4	0	0	NaN	NaN	NaN	none	none	NaN	0.035	low
404	4	54	0	self	0.5	NaN	yellow	0	left	left	GLO	none	close	1	intact	intact	8a8f2893-dc1c-441b-8b88-03672ad98bf9_fps_avg_aud.mp4	0	0	NaN	NaN	NaN	none	none	NaN	0.035	low
404	4	55	0	self	0.5	NaN	yellow	1	down	down	GLO	none	close	1	intact	intact	08d3f099-f57f-4490-a984-630519ad1c45_fps_avg_aud.mp4	0	0	NaN	NaN	NaN	none	none	NaN	0.035	low
404	4	56	0	self	0.5	NaN	red	0	down	down	GLO	none	close	1	intact	intact	Apr2_fps_avg_aud.mp4	0	0	NaN	NaN	NaN	none	none	NaN	0.035	low
404	4	57	0	self	0.5	NaN	green	1	left	left	GLO	none	far	1	intact	intact	Feb17_fps_avg_aud.mp4	0	0	NaN	NaN	NaN	none	none	NaN	0.035	low
404	4	58	0	self	0.5	NaN	red	1	up	up	GLO	none	close	1	intact	intact	Nov30_fps_avg_aud.mp4	0	0	NaN	NaN	NaN	none	none	NaN	0.035	low
404	4	59	0	self	0.5	NaN	blue	1	right	right	GLO	none	far	1	intact	intact	Mar23_fps_avg_aud.mp4	0	0	NaN	NaN	NaN	none	none	NaN	0.035	low
404	4	60	0	self	0.5	NaN	blue	0	up	up	GLO	none	close	1	intact	intact	2ee32cdc-eb1b-4b14-b0d7-fb25b7ed46e3_fps_avg_aud.mp4	0	0	NaN	NaN	NaN	none	none	NaN	0.035	low
404	4	61	0	self	0.5	NaN	red	0	down	down	GLO	none	far	1	intact	intact	May7_fps_avg_aud.mp4	0	0	NaN	NaN	NaN	none	none	NaN	0.035	low
404	4	62	0	self	0.5	NaN	green	0	right	right	GLO	none	close	1	intact	intact	bca3f84c-663e-49dd-9b23-05262dbf1e96_fps_avg_aud.mp4	0	0	NaN	NaN	NaN	none	none	NaN	0.035	low
404	4	63	0	self	0.5	NaN	green	0	right	right	GLO	none	far	1	intact	intact	beb38bd6-976e-468f-9f23-b6b41f12ce11_fps_avg_aud.mp4	0	0	NaN	NaN	NaN	none	none	NaN	0.035	low
404	4	64	0	self	0.5	NaN	green	0	right	right	GLO	none	close	1	intact	intact	6189325b-e315-4417-8d81-a8cae54059df_fps_avg_aud.mp4	0	0	NaN	NaN	NaN	none	none	NaN	0.035	low
404	4	65	0	self	0.5	NaN	blue	0	up	up	GLO	none	close	1	intact	intact	e3992607-d25b-430c-bd18-12cb4a6d1b28_fps_avg_aud.mp4	0	0	NaN	NaN	NaN	none	none	NaN	0.035	low
404	4	66	0	self	0.5	NaN	yellow	0	left	left	GLO	none	close	1	intact	intact	f8f9d4f8-9aad-49b0-8b1c-ddf47286d601_fps_avg_aud.mp4	0	0	NaN	NaN	NaN	none	none	NaN	0.035	low
404	4	67	0	self	0.5	NaN	green	1	down	down	GLO	none	far	1	intact	intact	December_2015_(1)_fps_avg_aud.mp4	0	0	NaN	NaN	NaN	none	none	NaN	0.035	low
404	4	68	0	self	0.5	NaN	blue	1	down	down	GLO	none	far	1	intact	intact	april_23_2015_fps_avg_aud.mp4	0	0	NaN	NaN	NaN	none	none	NaN	0.035	low
404	4	69	0	self	0.5	NaN	red	0	down	down	GLO	none	far	1	intact	intact	bd3765b8-eb64-440a-a4a8-b6804686fcae_fps_avg_aud.mp4	0	0	NaN	NaN	NaN	none	none	NaN	0.035	low
404	4	70	0	self	0.5	NaN	yellow	0	left	left	GLO	none	far	1	intact	intact	339eedaf-ff90-439f-b68a-797258b27c12_fps_avg_aud.mp4	0	0	NaN	NaN	NaN	none	none	NaN	0.035	low
404	4	71	0	self	0.5	NaN	green	1	up	up	GLO	none	far	1	intact	intact	359d82dd-3d4c-4029-a89b-66422745c056_fps_avg_aud.mp4	0	0	NaN	NaN	NaN	none	none	NaN	0.035	low
404	4	72	0	self	0.5	NaN	green	0	right	right	GLO	none	close	1	intact	intact	5b4edd74-dc10-4920-b508-c0b2f21238c3_fps_avg_aud.mp4	0	0	NaN	NaN	NaN	none	none	NaN	0.035	low
404	4	73	0	self	0.5	NaN	green	0	right	right	GLO	none	far	1	intact	intact	January_4_2016_fps_avg_aud.mp4	0	0	NaN	NaN	NaN	none	none	NaN	0.035	low
404	4	74	0	self	0.5	NaN	yellow	1	down	down	GLO	none	far	1	intact	intact	ac9d3ec9-e996-4c12-9cee-27057f644981_fps_avg_aud.mp4	0	0	NaN	NaN	NaN	none	none	NaN	0.035	low
404	4	75	0	self	0.5	NaN	green	0	right	right	GLO	none	close	1	intact	intact	bde7c25a-0ad2-4261-821f-9cae1d4d4033_fps_avg_aud.mp4	0	0	NaN	NaN	NaN	none	none	NaN	0.035	low
404	4	76	0	self	0.5	NaN	red	0	down	down	GLO	none	far	1	intact	intact	8fa6e47a-355a-4a52-986e-ef49886619e0_fps_avg_aud.mp4	0	0	NaN	NaN	NaN	none	none	NaN	0.035	low
404	4	77	0	self	0.5	NaN	red	1	up	up	GLO	none	close	1	intact	intact	a24b6226-d6e8-4655-b874-d79fefacec8c_fps_avg_aud.mp4	0	0	NaN	NaN	NaN	none	none	NaN	0.035	low
404	4	78	0	self	0.5	NaN	red	0	down	down	GLO	none	far	1	intact	intact	14b4b9c3-9408-4ec8-bd84-8e92a4405645_fps_avg_aud.mp4	0	0	NaN	NaN	NaN	none	none	NaN	0.035	low
404	4	79	0	self	0.5	NaN	yellow	1	up	up	GLO	none	far	1	intact	intact	75c41469-2e99-4ed0-b25f-04259686f11b_fps_avg_aud.mp4	0	0	NaN	NaN	NaN	none	none	NaN	0.035	low
404	4	80	0	self	0.5	NaN	yellow	0	left	left	GLO	none	close	1	intact	intact	may_25_2015_fps_avg_aud.mp4	0	0	NaN	NaN	NaN	none	none	NaN	0.035	low
404	4	81	0	self	0.5	NaN	red	0	down	down	GLO	none	far	1	intact	intact	06166668-1aac-4d03-b242-d4a5635a694b_fps_avg_aud.mp4	0	0	NaN	NaN	NaN	none	none	NaN	0.035	low
404	4	82	0	self	0.5	NaN	blue	0	up	up	GLO	none	far	1	intact	intact	cef9c179-f64d-4543-875f-6808da2329b6_fps_avg_aud.mp4	0	0	NaN	NaN	NaN	none	none	NaN	0.035	low
404	4	83	0	self	0.5	NaN	blue	1	down	down	GLO	none	close	1	intact	intact	a390325a-c9a6-4240-9459-3271767e2980_fps_avg_aud.mp4	0	0	NaN	NaN	NaN	none	none	NaN	0.035	low
404	4	84	0	self	0.5	NaN	green	0	right	right	GLO	none	far	1	intact	intact	e67cff3b-48fd-4045-95c8-a92189606742_fps_avg_aud.mp4	0	0	NaN	NaN	NaN	none	none	NaN	0.035	low
404	4	85	0	self	0.5	NaN	green	0	right	right	GLO	none	close	1	intact	intact	7ef90bcf-5b2a-4df5-b522-5d3f1e9badf1_fps_avg_aud.mp4	0	0	NaN	NaN	NaN	none	none	NaN	0.035	low
404	4	86	0	self	0.5	NaN	green	1	up	up	GLO	none	far	1	intact	intact	98afb848-1bd2-46a6-89c7-32d60d6d1855_fps_avg_aud.mp4	0	0	NaN	NaN	NaN	none	none	NaN	0.035	low
404	4	87	0	self	0.5	NaN	blue	0	up	up	GLO	none	close	1	intact	intact	d928ad07-fccb-4758-905a-ca2e2f1c06b6_fps_avg_aud.mp4	0	0	NaN	NaN	NaN	none	none	NaN	0.035	low
404	4	88	0	self	0.5	NaN	blue	1	left	left	GLO	none	far	1	intact	intact	July_2015_(2)_fps_avg_aud.mp4	0	0	NaN	NaN	NaN	none	none	NaN	0.035	low
404	4	89	0	self	0.5	NaN	blue	1	right	right	GLO	none	close	1	intact	intact	July6_fps_avg_aud.mp4	0	0	NaN	NaN	NaN	none	none	NaN	0.035	low
404	4	90	0	self	0.5	NaN	yellow	0	left	left	GLO	none	far	1	intact	intact	491f864e-d652-4cca-82ba-d023f3192016_fps_avg_aud.mp4	0	0	NaN	NaN	NaN	none	none	NaN	0.035	low
404	4	91	0	self	0.5	NaN	red	1	left	left	GLO	none	far	1	intact	intact	1b336470-7a10-4cc7-aee4-3a5e6e6e551e_fps_avg_aud.mp4	0	0	NaN	NaN	NaN	none	none	NaN	0.035	low
404	4	92	0	self	0.5	NaN	yellow	0	left	left	GLO	none	close	1	intact	intact	4492b756-14ac-4694-8c38-fa7503b864e1_fps_avg_aud.mp4	0	0	NaN	NaN	NaN	none	none	NaN	0.035	low
404	4	93	0	self	0.5	NaN	blue	0	up	up	GLO	none	far	1	intact	intact	Jan19_fps_avg_aud.mp4	0	0	NaN	NaN	NaN	none	none	NaN	0.035	low
404	5	1	0	auto	0.5	0.516526	red	1	right	right	GLO	left	close	1	intact	intact	fa34c2a5-d3e2-4d1e-914f-e40c92a49120_fps_avg_aud.mp4	1	0	2.31352	0	1	down	red	1	0.045	high
404	5	2	0	auto	0.5	0.516523	yellow	1	right	right	GLO	left	far	0	intact	none	none	0	0	0.550145	0	1	left	yellow	1	0.055	high
404	5	3	0	auto	0.5	0.516075	blue	0	up	up	GLO	right	far	1	intact	intact	ec93e301-9c09-4bba-94b5-edac54ba0e07_fps_avg_aud.mp4	1	0	0.733772	0	1	up	blue	1	0.065	high
404	5	4	0	auto	0.5	0.51766	red	0	down	down	GLO	right	far	1	intact	intact	jun14_fps_avg_aud.mp4	1	0	0.90349	0	1	down	red	1	0.075	high
404	5	5	0	auto	0.5	0.517327	blue	0	up	up	GLO	right	far	1	intact	intact	Oct1_fps_avg_aud.mp4	1	0	1.60592	0	1	up	blue	1	0.085	high
404	5	6	0	auto	0.5	0.516176	red	0	down	down	GLO	right	far	1	intact	intact	667c6586-78bc-49b6-b207-12bdfa8fdd9e_fps_avg_aud.mp4	1	0	0.584	0	1	down	red	1	0.095	high
404	5	7	0	auto	0.5	0.516711	blue	0	up	up	GLO	right	close	0	intact	none	none	0	0	0.866681	0	1	up	blue	1	0.105	high
404	5	8	0	auto	0.5	0.516503	green	0	right	right	GLO	left	close	1	intact	intact	May10_fps_avg_aud.mp4	1	0	0.832672	0	1	right	green	1	0.115	high
404	5	9	0	auto	0.5	0.51655	red	1	right	right	GLO	right	close	0	intact	none	none	0	0	2.91302	0	1	down	red	1	0.125	high
404	5	10	0	auto	0.5	0.517233	red	1	up	up	GLO	left	far	0	intact	none	none	0	0	0.59049	0	1	down	red	1	0.135	high
404	5	11	0	auto	0.5	0.517191	red	0	down	down	GLO	left	far	0	intact	none	none	0	0	0.499615	0	1	down	red	1	0.145	high
404	5	12	0	auto	0.5	0.51727	green	1	down	down	GLO	right	close	1	intact	intact	May18_fps_avg_aud.mp4	1	0	0.63376	0	1	right	green	1	0.155	high
404	5	13	0	auto	0.5	0.516509	green	0	right	right	GLO	right	close	1	intact	intact	9bd7a199-78f1-4f14-9fde-3a11c0ebd236_fps_avg_aud.mp4	1	0	1.05272	0	1	right	green	1	0.165	high
404	5	14	0	auto	0.5	0.516295	blue	1	right	right	GLO	right	close	1	intact	intact	September_2016_(2)_fps_avg_aud.mp4	1	0	2.20056	0	1	up	blue	1	0.175	high
404	5	15	0	auto	0.5	0.516015	blue	0	up	up	GLO	right	close	1	intact	intact	December_2015_(2)_fps_avg_aud.mp4	1	0	0.680085	0	1	up	blue	1	0.185	high
404	5	16	0	auto	0.5	0.517305	red	1	up	up	GLO	right	close	1	intact	intact	63b4d034-af4a-4a03-8aa0-83818020367c_fps_avg_aud.mp4	1	0	0.700267	0	1	down	red	1	0.195	high
404	5	17	0	auto	0.5	0.517019	blue	1	left	left	GLO	left	close	1	intact	intact	Nov7_fps_avg_aud.mp4	1	0	2.75464	0	1	up	blue	1	0.205	high
404	5	18	0	auto	0.5	0.515826	yellow	1	down	down	GLO	left	far	0	intact	none	none	0	0	0.967203	0	1	left	yellow	1	0.215	high
404	5	19	0	auto	0.5	0.517831	green	0	right	right	GLO	right	far	1	intact	intact	c59b0a3f-09df-4660-a241-ebba5fb01e57_fps_avg_aud.mp4	1	0	1.38437	0	1	right	green	1	0.225	high
404	5	20	0	auto	0.5	0.515994	green	1	up	up	GLO	right	close	1	intact	intact	january_31_2016_fps_avg_aud.mp4	1	0	0.660417	0	1	right	green	1	0.235	high
404	5	21	0	auto	0.5	0.515674	blue	0	up	up	GLO	right	close	1	intact	intact	Jun16_fps_avg_aud.mp4	1	0	1.00048	0	1	up	blue	1	0.245	high
404	5	22	0	auto	0.5	0.51594	blue	0	up	up	GLO	right	close	0	intact	none	none	0	0	0.867181	0	1	up	blue	1	0.255	high
404	5	23	0	auto	0.5	0.517026	blue	1	right	right	GLO	right	close	1	intact	intact	f252571c-093b-4ade-9187-cd198d1e3eb0_fps_avg_aud.mp4	1	0	0.466632	0	1	up	blue	1	0.265	high
404	5	24	0	auto	0.5	0.516726	yellow	1	up	up	GLO	left	far	1	intact	intact	533b0238-357b-409c-8d86-25285970eb98_fps_avg_aud.mp4	1	0	0.73647	0	1	left	yellow	1	0.275	high
404	5	25	0	auto	0.5	0.516632	red	0	down	down	GLO	left	close	0	intact	none	none	0	0	1.57431	0	1	down	red	1	0.285	high
404	5	26	0	auto	0.5	0.516128	yellow	1	right	right	GLO	right	far	1	intact	intact	June_17_2015_fps_avg_aud.mp4	1	0	0.787205	0	1	left	yellow	1	0.295	high
404	5	27	0	auto	0.5	0.516588	red	0	down	down	GLO	right	close	1	intact	intact	4492b756-14ac-4694-8c38-fa7503b864e1_fps_avg_aud.mp4	1	0	0.699896	0	1	down	red	1	0.305	high
404	5	28	0	auto	0.5	0.51584	blue	1	right	right	GLO	left	far	1	intact	intact	Dec30_fps_avg_aud.mp4	1	0	2.03016	0	1	up	blue	1	0.315	high
404	5	29	0	auto	0.5	0.516201	blue	0	up	up	GLO	right	close	1	intact	intact	11bc07f6-cbc9-48b9-a240-792e373d6a2a_fps_avg_aud.mp4	1	0	0.900201	0	1	up	blue	1	0.325	high
404	5	30	0	auto	0.5	0.516018	yellow	0	left	left	GLO	left	far	1	intact	intact	ea69ea96-da66-4080-96c0-6671ca9fd051_fps_avg_aud.mp4	1	0	1.26676	0	1	left	yellow	1	0.335	high
404	5	31	0	auto	0.5	0.515849	blue	1	right	right	GLO	left	far	1	intact	intact	f1caa1d5-1230-4918-b000-58763883bff3_fps_avg_aud.mp4	1	0	4.10667	0	1	up	blue	1	0.345	high
404	5	32	0	auto	0.5	0.517017	green	1	down	down	GLO	left	close	0	intact	none	none	0	0	0.849974	0	1	left	yellow	0	0.335	high
404	5	33	0	auto	0.5	0.516403	green	1	left	left	GLO	right	far	1	intact	intact	Jan13_fps_avg_aud.mp4	1	0	0.519866	0	1	left	yellow	0	0.325	high
404	5	34	0	auto	0.5	0.516103	red	0	down	down	GLO	left	close	1	intact	intact	639855c9-f7b0-4d31-8ca6-c12b36f03058_fps_avg_aud.mp4	1	0	1.28304	0	1	down	red	1	0.335	high
404	5	35	0	auto	0.5	0.517748	red	0	down	down	GLO	right	close	1	intact	intact	02c095ee-b711-4594-b27d-87092fa292bb_fps_avg_aud.mp4	1	0	1.019	0	1	down	red	1	0.345	high
404	5	36	0	auto	0.5	NaN	green	1	left	left	GLO	none	far	0	intact	none	none	0	0	NaN	NaN	NaN	none	none	NaN	0.345	high
404	5	37	0	auto	0.5	NaN	green	0	right	right	GLO	none	close	0	intact	none	none	0	0	NaN	NaN	NaN	none	none	NaN	0.345	high
404	5	38	0	auto	0.5	NaN	blue	0	up	up	GLO	none	far	0	intact	none	none	0	0	NaN	NaN	NaN	none	none	NaN	0.345	high
404	5	39	0	auto	0.5	NaN	green	0	right	right	GLO	none	far	1	intact	intact	Nov28_fps_avg_aud.mp4	0	0	NaN	NaN	NaN	none	none	NaN	0.345	high
404	5	40	0	auto	0.5	NaN	green	1	up	up	GLO	none	far	1	intact	intact	16fe28b7-019b-49e7-9b4b-6b9fba85fe3d_fps_avg_aud.mp4	0	0	NaN	NaN	NaN	none	none	NaN	0.345	high
404	5	41	0	auto	0.5	NaN	blue	0	up	up	GLO	none	close	1	intact	intact	Dec25_fps_avg_aud.mp4	0	0	NaN	NaN	NaN	none	none	NaN	0.345	high
404	5	42	0	auto	0.5	NaN	green	0	right	right	GLO	none	close	1	intact	intact	f08bb9b7-0409-482c-9084-de15481ab2b3_fps_avg_aud.mp4	0	0	NaN	NaN	NaN	none	none	NaN	0.345	high
404	5	43	0	auto	0.5	NaN	yellow	0	left	left	GLO	none	far	1	intact	intact	June_2016_(2)_fps_avg_aud.mp4	0	0	NaN	NaN	NaN	none	none	NaN	0.345	high
404	5	44	0	auto	0.5	NaN	yellow	1	down	down	GLO	none	close	1	intact	intact	Jan5_fps_avg_aud.mp4	0	0	NaN	NaN	NaN	none	none	NaN	0.345	high
404	5	45	0	auto	0.5	NaN	green	1	down	down	GLO	none	close	1	intact	intact	June_2016_fps_avg_aud.mp4	0	0	NaN	NaN	NaN	none	none	NaN	0.345	high
404	5	46	0	auto	0.5	NaN	blue	0	up	up	GLO	none	close	0	intact	none	none	0	0	NaN	NaN	NaN	none	none	NaN	0.345	high
404	5	47	0	auto	0.5	NaN	red	0	down	down	GLO	none	far	1	intact	intact	Apr7_fps_avg_aud.mp4	0	0	NaN	NaN	NaN	none	none	NaN	0.345	high
404	5	48	0	auto	0.5	NaN	red	0	down	down	GLO	none	close	1	intact	intact	647890e0-5689-43cf-86ab-b37e61076130_fps_avg_aud.mp4	0	0	NaN	NaN	NaN	none	none	NaN	0.345	high
404	5	49	0	auto	0.5	NaN	red	0	down	down	GLO	none	far	1	intact	intact	af0fa101-699c-45fe-9ac0-b3a3d283604b_fps_avg_aud.mp4	0	0	NaN	NaN	NaN	none	none	NaN	0.345	high
404	5	50	0	auto	0.5	NaN	yellow	1	down	down	GLO	none	far	0	intact	none	none	0	0	NaN	NaN	NaN	none	none	NaN	0.345	high
404	5	51	0	auto	0.5	NaN	blue	0	up	up	GLO	none	far	1	intact	intact	ede4a096-21dc-4ed4-9b28-6df0a7f6fe6b_fps_avg_aud.mp4	0	0	NaN	NaN	NaN	none	none	NaN	0.345	high
404	5	52	0	auto	0.5	NaN	green	1	left	left	GLO	none	close	1	intact	intact	79665cdb-61c8-40fb-9ffc-0682e57caf2f_fps_avg_aud.mp4	0	0	NaN	NaN	NaN	none	none	NaN	0.345	high
404	5	53	0	auto	0.5	NaN	blue	1	down	down	GLO	none	close	1	intact	intact	5b8d6efa-e1ab-4dc5-b720-51d467e90859_fps_avg_aud.mp4	0	0	NaN	NaN	NaN	none	none	NaN	0.345	high
404	5	54	0	auto	0.5	NaN	blue	0	up	up	GLO	none	far	1	intact	intact	bca3f84c-663e-49dd-9b23-05262dbf1e96_fps_avg_aud.mp4	0	0	NaN	NaN	NaN	none	none	NaN	0.345	high
404	5	55	0	auto	0.5	NaN	yellow	0	left	left	GLO	none	far	1	intact	intact	Feb17_fps_avg_aud.mp4	0	0	NaN	NaN	NaN	none	none	NaN	0.345	high
404	5	56	0	auto	0.5	NaN	yellow	1	down	down	GLO	none	close	1	intact	intact	3787d5d7-bc65-4720-b93c-344c8ca85f75_fps_avg_aud.mp4	0	0	NaN	NaN	NaN	none	none	NaN	0.345	high
404	5	57	0	auto	0.5	NaN	blue	1	left	left	GLO	none	far	1	intact	intact	de76edf3-7c24-4386-8e6c-01dd4c15291d_fps_avg_aud.mp4	0	0	NaN	NaN	NaN	none	none	NaN	0.345	high
404	5	58	0	auto	0.5	NaN	yellow	1	up	up	GLO	none	far	0	intact	none	none	0	0	NaN	NaN	NaN	none	none	NaN	0.345	high
404	5	59	0	auto	0.5	NaN	blue	0	up	up	GLO	none	close	1	intact	intact	b11b47e5-c9ce-4ff0-9f69-98698858b2d8_fps_avg_aud.mp4	0	0	NaN	NaN	NaN	none	none	NaN	0.345	high
404	5	60	0	auto	0.5	NaN	green	1	left	left	GLO	none	close	1	intact	intact	31c3bae2-faf4-4718-b53b-2e88624b3fa5_fps_avg_aud.mp4	0	0	NaN	NaN	NaN	none	none	NaN	0.345	high
404	5	61	0	auto	0.5	NaN	green	1	down	down	GLO	none	close	0	intact	none	none	0	0	NaN	NaN	NaN	none	none	NaN	0.345	high
404	5	62	0	auto	0.5	NaN	green	1	left	left	GLO	none	close	1	intact	intact	f9a11fba-d584-4a74-ba4f-e5eb4ac62b73_fps_avg_aud.mp4	0	0	NaN	NaN	NaN	none	none	NaN	0.345	high
404	5	63	0	auto	0.5	NaN	green	1	left	left	GLO	none	far	0	intact	none	none	0	0	NaN	NaN	NaN	none	none	NaN	0.345	high
404	5	64	0	auto	0.5	NaN	blue	0	up	up	GLO	none	far	1	intact	intact	b1dabac3-204f-4571-b892-69eb87e805d0_fps_avg_aud.mp4	0	0	NaN	NaN	NaN	none	none	NaN	0.345	high
404	5	65	0	auto	0.5	NaN	green	0	right	right	GLO	none	close	0	intact	none	none	0	0	NaN	NaN	NaN	none	none	NaN	0.345	high
404	5	66	0	auto	0.5	NaN	yellow	0	left	left	GLO	none	far	1	intact	intact	e57a35d6-39b7-4b9c-a4a1-844e0bebd3c1_fps_avg_aud.mp4	0	0	NaN	NaN	NaN	none	none	NaN	0.345	high
404	5	67	0	auto	0.5	NaN	green	0	right	right	GLO	none	far	1	intact	intact	September_14_2016_fps_avg_aud.mp4	0	0	NaN	NaN	NaN	none	none	NaN	0.345	high
404	5	68	0	auto	0.5	NaN	yellow	0	left	left	GLO	none	close	1	intact	intact	September_2016_(3)_fps_avg_aud.mp4	0	0	NaN	NaN	NaN	none	none	NaN	0.345	high
404	5	69	0	auto	0.5	NaN	green	1	down	down	GLO	none	close	0	intact	none	none	0	0	NaN	NaN	NaN	none	none	NaN	0.345	high
404	5	70	0	auto	0.5	NaN	red	1	right	right	GLO	none	far	1	intact	intact	Jan19_fps_avg_aud.mp4	0	0	NaN	NaN	NaN	none	none	NaN	0.345	high
404	5	71	0	auto	0.5	NaN	blue	0	up	up	GLO	none	far	1	intact	intact	Jan31_fps_avg_aud.mp4	0	0	NaN	NaN	NaN	none	none	NaN	0.345	high
404	5	72	0	auto	0.5	NaN	yellow	0	left	left	GLO	none	far	1	intact	intact	8e8c5e28-7fba-491b-88f9-891e8e26ddbd_fps_avg_aud.mp4	0	0	NaN	NaN	NaN	none	none	NaN	0.345	high
404	5	73	0	auto	0.5	NaN	yellow	1	right	right	GLO	none	far	1	intact	intact	d021cb9c-36bf-48fb-9474-23511a956f6a_fps_avg_aud.mp4	0	0	NaN	NaN	NaN	none	none	NaN	0.345	high
404	5	74	0	auto	0.5	NaN	yellow	1	up	up	GLO	none	close	1	intact	intact	1fd9b798-493d-4dfc-a8df-678bad207055_fps_avg_aud.mp4	0	0	NaN	NaN	NaN	none	none	NaN	0.345	high
404	5	75	0	auto	0.5	NaN	red	1	right	right	GLO	none	close	1	intact	intact	e9f06abd-24bb-46d2-ac8b-3a473a758d7e_fps_avg_aud.mp4	0	0	NaN	NaN	NaN	none	none	NaN	0.345	high
404	5	76	0	auto	0.5	NaN	blue	0	up	up	GLO	none	close	0	intact	none	none	0	0	NaN	NaN	NaN	none	none	NaN	0.345	high
404	5	77	0	auto	0.5	NaN	yellow	0	left	left	GLO	none	far	1	intact	intact	May27_fps_avg_aud.mp4	0	0	NaN	NaN	NaN	none	none	NaN	0.345	high
404	5	78	0	auto	0.5	NaN	red	0	down	down	GLO	none	far	1	intact	intact	cea732af-276b-4e98-ac0e-85adfd7a4545_fps_avg_aud.mp4	0	0	NaN	NaN	NaN	none	none	NaN	0.345	high
404	5	79	0	auto	0.5	NaN	yellow	0	left	left	GLO	none	close	0	intact	none	none	0	0	NaN	NaN	NaN	none	none	NaN	0.345	high
404	5	80	0	auto	0.5	NaN	red	0	down	down	GLO	none	close	0	intact	none	none	0	0	NaN	NaN	NaN	none	none	NaN	0.345	high
404	5	81	0	auto	0.5	NaN	blue	0	up	up	GLO	none	close	0	intact	none	none	0	0	NaN	NaN	NaN	none	none	NaN	0.345	high
404	5	82	0	auto	0.5	NaN	green	0	right	right	GLO	none	close	1	intact	intact	cb6ef54e-2b4c-4064-8d68-1ca2b2e8a47c_fps_avg_aud.mp4	0	0	NaN	NaN	NaN	none	none	NaN	0.345	high
404	5	83	0	auto	0.5	NaN	red	1	right	right	GLO	none	close	1	intact	intact	Jun8_fps_avg_aud.mp4	0	0	NaN	NaN	NaN	none	none	NaN	0.345	high
404	5	84	0	auto	0.5	NaN	yellow	0	left	left	GLO	none	far	1	intact	intact	Jan11_fps_avg_aud.mp4	0	0	NaN	NaN	NaN	none	none	NaN	0.345	high
404	5	85	0	auto	0.5	NaN	blue	0	up	up	GLO	none	close	0	intact	none	none	0	0	NaN	NaN	NaN	none	none	NaN	0.345	high
404	5	86	0	auto	0.5	NaN	red	1	right	right	GLO	none	close	1	intact	intact	86e20a10-46be-4f52-b05b-06877412cf60_fps_avg_aud.mp4	0	0	NaN	NaN	NaN	none	none	NaN	0.345	high
404	5	87	0	auto	0.5	NaN	green	0	right	right	GLO	none	far	0	intact	none	none	0	0	NaN	NaN	NaN	none	none	NaN	0.345	high
404	5	88	0	auto	0.5	NaN	yellow	1	up	up	GLO	none	far	0	intact	none	none	0	0	NaN	NaN	NaN	none	none	NaN	0.345	high
404	5	89	0	auto	0.5	NaN	blue	0	up	up	GLO	none	close	1	intact	intact	Feb1_fps_avg_aud.mp4	0	0	NaN	NaN	NaN	none	none	NaN	0.345	high
404	5	90	0	auto	0.5	NaN	green	0	right	right	GLO	none	far	0	intact	none	none	0	0	NaN	NaN	NaN	none	none	NaN	0.345	high
404	5	91	0	auto	0.5	NaN	yellow	0	left	left	GLO	none	far	0	intact	none	none	0	0	NaN	NaN	NaN	none	none	NaN	0.345	high
404	5	92	0	auto	0.5	NaN	red	1	right	right	GLO	none	close	1	intact	intact	ac2b9dfa-7a4b-40ef-9499-c883a9127ad7_fps_avg_aud.mp4	0	0	NaN	NaN	NaN	none	none	NaN	0.345	high
404	5	93	0	auto	0.5	NaN	yellow	1	up	up	GLO	none	close	1	intact	intact	Oct7_fps_avg_aud.mp4	0	0	NaN	NaN	NaN	none	none	NaN	0.345	high
404	6	1	0	auto	0.5	0.517702	green	0	right	right	GLO	right	close	1	intact	intact	108f257a-1892-40f5-b9e3-6eb0557bc08c(1)_fps_avg_aud.mp4	1	0	1.24198	0	1	right	green	1	0.346	low
404	6	2	0	auto	0.5	0.5163	yellow	0	left	left	GLO	right	far	1	intact	intact	6189325b-e315-4417-8d81-a8cae54059df_fps_avg_aud.mp4	1	0	0.633138	0	1	left	yellow	1	0.347	low
404	6	3	0	auto	0.5	0.516421	red	1	right	right	GLO	right	far	1	intact	intact	ac670a32-9758-4aa8-b876-775cfe4f2e47_fps_avg_aud.mp4	1	0	1.79376	0	1	down	red	1	0.348	low
404	6	4	0	auto	0.5	0.515647	yellow	0	left	left	GLO	right	far	1	intact	intact	Mar25_fps_avg_aud.mp4	1	0	0.813972	0	1	left	yellow	1	0.349	low
404	6	5	0	auto	0.5	0.517436	blue	1	left	left	GLO	left	close	1	intact	intact	e3992607-d25b-430c-bd18-12cb4a6d1b28_fps_avg_aud.mp4	1	0	1.31546	0	1	up	blue	1	0.35	low
404	6	6	0	auto	0.5	0.516948	green	1	up	up	GLO	right	close	1	intact	intact	4d681112-07b2-4265-a7e1-d188bc4f8511_fps_avg_aud.mp4	1	0	1.10037	0	1	right	green	1	0.351	low
404	6	7	0	auto	0.5	0.517043	green	1	up	up	GLO	left	far	1	intact	intact	November_14_2016_fps_avg_aud.mp4	1	0	0.541075	0	1	right	green	1	0.352	low
404	6	8	0	auto	0.5	0.516255	yellow	1	right	right	GLO	right	close	1	intact	intact	31c3bae2-faf4-4718-b53b-2e88624b3fa5_fps_avg_aud.mp4	1	0	0.733785	0	1	left	yellow	1	0.353	low
404	6	9	0	auto	0.5	0.515906	green	1	down	down	GLO	left	far	1	intact	intact	Aug17_fps_avg_aud.mp4	1	0	0.478651	0	1	right	green	1	0.354	low
404	6	10	0	auto	0.5	0.516576	yellow	1	right	right	GLO	left	close	1	intact	intact	Oct13_fps_avg_aud.mp4	1	0	0.675223	0	1	left	yellow	1	0.355	low
404	6	11	0	auto	0.5	0.515905	yellow	0	left	left	GLO	right	close	1	intact	intact	cc0b25a9-3d1b-4c67-b1c5-5f27d60e59cb_fps_avg_aud.mp4	1	0	1.20096	0	1	left	yellow	1	0.356	low
404	6	12	0	auto	0.5	0.516473	yellow	0	left	left	GLO	left	close	1	intact	intact	May11_fps_avg_aud.mp4	1	0	0.566699	0	1	left	yellow	1	0.357	low
404	6	13	0	auto	0.5	0.516336	blue	1	down	down	GLO	right	far	1	intact	intact	c939d2dd-f401-4cdf-bab0-fe7457cad0a4_fps_avg_aud.mp4	1	0	1.45201	0	1	up	blue	1	0.358	low
404	6	14	0	auto	0.5	0.516149	red	0	down	down	GLO	left	far	1	intact	intact	591cd28e-3b15-449a-b19f-e2e7cabcd7ba_fps_avg_aud.mp4	1	0	0.77941	0	1	down	red	1	0.359	low
404	6	15	0	auto	0.5	0.516149	yellow	1	down	down	GLO	left	far	1	intact	intact	e3ba147b-ae8e-4b27-9412-577f6cfd64f4_fps_avg_aud.mp4	1	0	1.21202	0	1	left	yellow	1	0.36	low
404	6	16	0	auto	0.5	0.516183	red	1	right	right	GLO	right	close	0	intact	none	none	0	0	2.18427	0	1	down	red	1	0.361	low
404	6	17	0	auto	0.5	0.515651	red	1	up	up	GLO	right	close	1	intact	intact	592c03b4-010b-4f30-8521-fbf254e827b0_fps_avg_aud.mp4	1	0	0.834268	0	1	down	red	1	0.362	low
404	6	18	0	auto	0.5	0.5172	green	1	up	up	GLO	right	far	0	intact	none	none	0	0	2.40015	0	1	right	green	1	0.363	low
404	6	19	0	auto	0.5	0.516914	green	0	right	right	GLO	left	close	1	intact	intact	de8d0a62-04ca-452a-a478-93877cedee98_fps_avg_aud.mp4	1	0	0.949367	0	1	right	green	1	0.364	low
404	6	20	0	auto	0.5	0.516476	green	1	left	left	GLO	right	close	1	intact	intact	6247a4ca-9a6e-47c1-91f4-5a9925a1c125_fps_avg_aud.mp4	1	0	1.36632	0	1	right	green	1	0.365	low
404	6	21	0	auto	0.5	0.516385	green	1	left	left	GLO	left	far	1	intact	intact	ac9d3ec9-e996-4c12-9cee-27057f644981_fps_avg_aud.mp4	1	0	0.918151	0	1	right	green	1	0.366	low
404	6	22	0	auto	0.5	0.516002	yellow	1	up	up	GLO	right	close	1	intact	intact	491c6b26-e39a-4650-ae90-8d66fc596b16_fps_avg_aud.mp4	1	0	0.542512	0	1	left	yellow	1	0.367	low
404	6	23	0	auto	0.5	0.517506	yellow	0	left	left	GLO	right	close	0	intact	none	none	0	0	0.516161	0	1	left	yellow	1	0.368	low
404	6	24	0	auto	0.5	0.516049	red	0	down	down	GLO	right	far	1	intact	intact	Apr15_fps_avg_aud.mp4	1	0	0.879637	0	1	down	red	1	0.369	low
404	6	25	0	auto	0.5	0.5174	red	0	down	down	GLO	left	far	1	intact	intact	8ef19348-df54-46b9-9672-f236fb24f042_fps_avg_aud.mp4	1	0	0.542094	0	1	down	red	1	0.37	low
404	6	26	0	auto	0.5	0.516275	yellow	1	up	up	GLO	left	far	0	intact	none	none	0	0	1.05042	0	1	left	yellow	1	0.371	low
404	6	27	0	auto	0.5	0.516988	yellow	0	left	left	GLO	right	close	1	intact	intact	Jan5_fps_avg_aud.mp4	1	0	0.60826	0	1	left	yellow	1	0.372	low
404	6	28	0	auto	0.5	0.516625	blue	0	up	up	GLO	right	far	1	intact	intact	058bdf98-bb64-4851-92f5-ffad71866ee8_fps_avg_aud.mp4	1	0	1.51323	0	1	up	blue	1	0.373	low
404	6	29	0	auto	0.5	0.517419	yellow	0	left	left	GLO	left	far	1	intact	intact	af1072d0-b5fe-435b-b10d-545750eb973b_fps_avg_aud.mp4	1	0	1.88488	0	1	left	yellow	1	0.374	low
404	6	30	0	auto	0.5	0.516051	yellow	0	left	left	GLO	right	far	0	intact	none	none	0	0	0.49175	0	1	left	yellow	1	0.375	low
404	6	31	0	auto	0.5	0.516294	yellow	0	left	left	GLO	right	close	1	intact	intact	69d4f1be-9d50-4cd5-8475-2fb4a62d07e2_fps_avg_aud.mp4	1	0	0.556647	0	1	left	yellow	1	0.376	low
404	6	32	0	auto	0.5	0.516775	green	0	right	right	GLO	left	close	1	intact	intact	June_2016_(3)_fps_avg_aud.mp4	1	0	2.64744	0	1	right	green	1	0.377	low
404	6	33	0	auto	0.5	0.517519	yellow	0	left	left	GLO	right	far	1	intact	intact	0096623f-bd93-48df-96f9-85a0a749a586_fps_avg_aud.mp4	1	0	1.00018	0	1	left	yellow	1	0.378	low
404	6	34	0	auto	0.5	0.515938	yellow	1	down	down	GLO	right	close	1	intact	intact	June_2016_(2)_fps_avg_aud.mp4	1	0	0.601195	0	1	left	yellow	1	0.379	low
404	6	35	0	auto	0.5	0.516259	green	0	right	right	GLO	right	close	1	intact	intact	b8f7a383-ba3e-49db-977d-18cbd8702864_fps_avg_aud.mp4	1	53	2.58301	0.288661	1	right	green	1	0.38	low
404	6	36	0	auto	0.5	0.51681	blue	0	up	up	GLO	left	far	0	intact	none	none	0	0	3.51054	0	1	up	blue	1	0.381	low
404	6	37	0	auto	0.5	NaN	red	1	up	up	GLO	none	far	0	intact	none	none	0	0	NaN	NaN	NaN	none	none	NaN	0.381	low
404	6	38	0	auto	0.5	NaN	blue	1	down	down	GLO	none	close	1	intact	intact	b5bcd3a2-267e-4413-b730-c3121b8457ab_fps_avg_aud.mp4	0	0	NaN	NaN	NaN	none	none	NaN	0.381	low
404	6	39	0	auto	0.5	NaN	yellow	1	down	down	GLO	none	far	1	intact	intact	Oct7_fps_avg_aud.mp4	0	0	NaN	NaN	NaN	none	none	NaN	0.381	low
404	6	40	0	auto	0.5	NaN	green	0	right	right	GLO	none	far	1	intact	intact	Feb17_fps_avg_aud.mp4	0	0	NaN	NaN	NaN	none	none	NaN	0.381	low
404	6	41	0	auto	0.5	NaN	yellow	0	left	left	GLO	none	far	1	intact	intact	5f534c39-dfe8-4a8d-a678-c406bcf9154d_fps_avg_aud.mp4	0	0	NaN	NaN	NaN	none	none	NaN	0.381	low
404	6	42	0	auto	0.5	NaN	yellow	0	left	left	GLO	none	far	0	intact	none	none	0	0	NaN	NaN	NaN	none	none	NaN	0.381	low
404	6	43	0	auto	0.5	NaN	green	0	right	right	GLO	none	close	1	intact	intact	21ca1f40-8184-4506-9096-1849a40e04e2_fps_avg_aud.mp4	0	0	NaN	NaN	NaN	none	none	NaN	0.381	low
404	6	44	0	auto	0.5	NaN	red	0	down	down	GLO	none	close	1	intact	intact	32a37ce7-a199-40eb-b5c5-b974866ffc28_fps_avg_aud.mp4	0	0	NaN	NaN	NaN	none	none	NaN	0.381	low
404	6	45	0	auto	0.5	NaN	green	0	right	right	GLO	none	far	0	intact	none	none	0	0	NaN	NaN	NaN	none	none	NaN	0.381	low
404	6	46	0	auto	0.5	NaN	red	0	down	down	GLO	none	far	0	intact	none	none	0	0	NaN	NaN	NaN	none	none	NaN	0.381	low
404	6	47	0	auto	0.5	NaN	yellow	1	down	down	GLO	none	close	0	intact	none	none	0	0	NaN	NaN	NaN	none	none	NaN	0.381	low
404	6	48	0	auto	0.5	NaN	yellow	0	left	left	GLO	none	far	0	intact	none	none	0	0	NaN	NaN	NaN	none	none	NaN	0.381	low
404	6	49	0	auto	0.5	NaN	red	1	left	left	GLO	none	close	1	intact	intact	8131cc16-56a9-45d8-8dab-20ead5938e0a_fps_avg_aud.mp4	0	0	NaN	NaN	NaN	none	none	NaN	0.381	low
404	6	50	0	auto	0.5	NaN	blue	0	up	up	GLO	none	far	0	intact	none	none	0	0	NaN	NaN	NaN	none	none	NaN	0.381	low
404	6	51	0	auto	0.5	NaN	green	1	left	left	GLO	none	close	0	intact	none	none	0	0	NaN	NaN	NaN	none	none	NaN	0.381	low
404	6	52	0	auto	0.5	NaN	red	0	down	down	GLO	none	far	0	intact	none	none	0	0	NaN	NaN	NaN	none	none	NaN	0.381	low
404	6	53	0	auto	0.5	NaN	yellow	1	right	right	GLO	none	far	1	intact	intact	October_2015_fps_avg_aud.mp4	0	0	NaN	NaN	NaN	none	none	NaN	0.381	low
404	6	54	0	auto	0.5	NaN	yellow	1	down	down	GLO	none	far	1	intact	intact	beb38bd6-976e-468f-9f23-b6b41f12ce11_fps_avg_aud.mp4	0	0	NaN	NaN	NaN	none	none	NaN	0.381	low
404	6	55	0	auto	0.5	NaN	blue	1	left	left	GLO	none	close	1	intact	intact	april_23_2015_fps_avg_aud.mp4	0	0	NaN	NaN	NaN	none	none	NaN	0.381	low
404	6	56	0	auto	0.5	NaN	green	0	right	right	GLO	none	close	0	intact	none	none	0	0	NaN	NaN	NaN	none	none	NaN	0.381	low
404	6	57	0	auto	0.5	NaN	yellow	0	left	left	GLO	none	far	1	intact	intact	9df4c83d-45cc-4501-be4d-279a04192ba4_fps_avg_aud.mp4	0	0	NaN	NaN	NaN	none	none	NaN	0.381	low
404	6	58	0	auto	0.5	NaN	red	1	up	up	GLO	none	far	1	intact	intact	ed5c9b46-1903-43ac-bc9d-4681004c3550_fps_avg_aud.mp4	0	0	NaN	NaN	NaN	none	none	NaN	0.381	low
404	6	59	0	auto	0.5	NaN	red	1	left	left	GLO	none	far	0	intact	none	none	0	0	NaN	NaN	NaN	none	none	NaN	0.381	low
404	6	60	0	auto	0.5	NaN	blue	0	up	up	GLO	none	close	1	intact	intact	7b9f55fa-3ddf-4c84-bb13-2413d53cbf75_fps_avg_aud.mp4	0	0	NaN	NaN	NaN	none	none	NaN	0.381	low
404	6	61	0	auto	0.5	NaN	red	0	down	down	GLO	none	close	1	intact	intact	Aug18_fps_avg_aud.mp4	0	0	NaN	NaN	NaN	none	none	NaN	0.381	low
404	6	62	0	auto	0.5	NaN	yellow	0	left	left	GLO	none	close	1	intact	intact	July25_fps_avg_aud.mp4	0	0	NaN	NaN	NaN	none	none	NaN	0.381	low
404	6	63	0	auto	0.5	NaN	red	0	down	down	GLO	none	close	1	intact	intact	b1ade3a7-f9fd-4229-8a80-df334c184531_fps_avg_aud.mp4	0	0	NaN	NaN	NaN	none	none	NaN	0.381	low
404	6	64	0	auto	0.5	NaN	yellow	1	up	up	GLO	none	far	1	intact	intact	a66e9cf1-4573-4450-a822-0bcc91474968_fps_avg_aud.mp4	0	0	NaN	NaN	NaN	none	none	NaN	0.381	low
404	6	65	0	auto	0.5	NaN	green	0	right	right	GLO	none	close	1	intact	intact	Jun8_fps_avg_aud.mp4	0	0	NaN	NaN	NaN	none	none	NaN	0.381	low
404	6	66	0	auto	0.5	NaN	green	1	down	down	GLO	none	far	1	intact	intact	76b50970-7143-4993-96e1-54ee18b8278e_fps_avg_aud.mp4	0	0	NaN	NaN	NaN	none	none	NaN	0.381	low
404	6	67	0	auto	0.5	NaN	blue	0	up	up	GLO	none	far	1	intact	intact	7ed41b90-fac5-42bc-94a9-a4d7f021d578_fps_avg_aud.mp4	0	0	NaN	NaN	NaN	none	none	NaN	0.381	low
404	6	68	0	auto	0.5	NaN	blue	1	left	left	GLO	none	far	0	intact	none	none	0	0	NaN	NaN	NaN	none	none	NaN	0.381	low
404	6	69	0	auto	0.5	NaN	red	1	left	left	GLO	none	far	1	intact	intact	14b4b9c3-9408-4ec8-bd84-8e92a4405645_fps_avg_aud.mp4	0	0	NaN	NaN	NaN	none	none	NaN	0.381	low
404	6	70	0	auto	0.5	NaN	blue	0	up	up	GLO	none	far	1	intact	intact	05c4b895-8d51-48d4-93fd-4e37519019a0_fps_avg_aud.mp4	0	0	NaN	NaN	NaN	none	none	NaN	0.381	low
404	6	71	0	auto	0.5	NaN	green	0	right	right	GLO	none	far	1	intact	intact	Sep20_fps_avg_aud.mp4	0	0	NaN	NaN	NaN	none	none	NaN	0.381	low
404	6	72	0	auto	0.5	NaN	red	1	up	up	GLO	none	close	1	intact	intact	Jun21_fps_avg_aud.mp4	0	0	NaN	NaN	NaN	none	none	NaN	0.381	low
404	6	73	0	auto	0.5	NaN	red	1	left	left	GLO	none	close	0	intact	none	none	0	0	NaN	NaN	NaN	none	none	NaN	0.381	low
404	6	74	0	auto	0.5	NaN	red	1	up	up	GLO	none	far	1	intact	intact	Mar19_fps_avg_aud.mp4	0	0	NaN	NaN	NaN	none	none	NaN	0.381	low
404	6	75	0	auto	0.5	NaN	yellow	1	down	down	GLO	none	far	1	intact	intact	January_2016_(1)_fps_avg_aud.mp4	0	0	NaN	NaN	NaN	none	none	NaN	0.381	low
404	6	76	0	auto	0.5	NaN	green	0	right	right	GLO	none	far	1	intact	intact	2ee32cdc-eb1b-4b14-b0d7-fb25b7ed46e3_fps_avg_aud.mp4	0	0	NaN	NaN	NaN	none	none	NaN	0.381	low
404	6	77	0	auto	0.5	NaN	red	0	down	down	GLO	none	far	0	intact	none	none	0	0	NaN	NaN	NaN	none	none	NaN	0.381	low
404	6	78	0	auto	0.5	NaN	yellow	1	right	right	GLO	none	close	1	intact	intact	Aug10_fps_avg_aud.mp4	0	0	NaN	NaN	NaN	none	none	NaN	0.381	low
404	6	79	0	auto	0.5	NaN	red	1	left	left	GLO	none	close	0	intact	none	none	0	0	NaN	NaN	NaN	none	none	NaN	0.381	low
404	6	80	0	auto	0.5	NaN	blue	0	up	up	GLO	none	close	1	intact	intact	June_112016_fps_avg_aud.mp4	0	0	NaN	NaN	NaN	none	none	NaN	0.381	low
404	6	81	0	auto	0.5	NaN	blue	0	up	up	GLO	none	far	0	intact	none	none	0	0	NaN	NaN	NaN	none	none	NaN	0.381	low
404	6	82	0	auto	0.5	NaN	blue	1	right	right	GLO	none	close	0	intact	none	none	0	0	NaN	NaN	NaN	none	none	NaN	0.381	low
404	6	83	0	auto	0.5	NaN	green	1	down	down	GLO	none	close	0	intact	none	none	0	0	NaN	NaN	NaN	none	none	NaN	0.381	low
404	6	84	0	auto	0.5	NaN	yellow	1	right	right	GLO	none	close	0	intact	none	none	0	0	NaN	NaN	NaN	none	none	NaN	0.381	low
404	6	85	0	auto	0.5	NaN	green	1	left	left	GLO	none	far	1	intact	intact	74863169-b4eb-4472-bb27-c309a4fed0aa_fps_avg_aud.mp4	0	0	NaN	NaN	NaN	none	none	NaN	0.381	low
404	6	86	0	auto	0.5	NaN	blue	0	up	up	GLO	none	far	1	intact	intact	July_2015_(2)_fps_avg_aud.mp4	0	0	NaN	NaN	NaN	none	none	NaN	0.381	low
404	6	87	0	auto	0.5	NaN	yellow	1	right	right	GLO	none	far	0	intact	none	none	0	0	NaN	NaN	NaN	none	none	NaN	0.381	low
404	6	88	0	auto	0.5	NaN	blue	1	right	right	GLO	none	close	1	intact	intact	a9843691-e4cb-4c12-aa70-47f2024c5698_fps_avg_aud.mp4	0	0	NaN	NaN	NaN	none	none	NaN	0.381	low
404	6	89	0	auto	0.5	NaN	red	1	right	right	GLO	none	close	0	intact	none	none	0	0	NaN	NaN	NaN	none	none	NaN	0.381	low
404	6	90	0	auto	0.5	NaN	blue	0	up	up	GLO	none	close	0	intact	none	none	0	0	NaN	NaN	NaN	none	none	NaN	0.381	low
404	6	91	0	auto	0.5	NaN	blue	0	up	up	GLO	none	far	0	intact	none	none	0	0	NaN	NaN	NaN	none	none	NaN	0.381	low
404	6	92	0	auto	0.5	NaN	blue	1	left	left	GLO	none	close	1	intact	intact	October_14_2016_fps_avg_aud.mp4	0	0	NaN	NaN	NaN	none	none	NaN	0.381	low
404	6	93	0	auto	0.5	NaN	blue	1	left	left	GLO	none	far	0	intact	none	none	0	0	NaN	NaN	NaN	none	none	NaN	0.381	low
404	7	1	0	self	0.5	0.51706	red	0	down	down	GLO	left	far	1	intact	intact	f9a11fba-d584-4a74-ba4f-e5eb4ac62b73_fps_avg_aud.mp4	0	0	1.2832	0	1	down	red	1	0.391	high
404	7	2	0	self	0.5	0.517007	red	0	down	down	GLO	right	close	1	intact	intact	fc42fffc-beb2-426f-85f8-fe9f11671486_fps_avg_aud.mp4	0	0	0.608816	0	1	down	red	1	0.401	high
404	7	3	0	self	0.5	0.51671	green	0	right	right	GLO	right	close	1	intact	intact	Apr4_fps_avg_aud.mp4	0	0	2.1004	0	1	right	green	1	0.411	high
404	7	4	0	self	0.5	0.516565	green	1	down	down	GLO	left	close	1	intact	intact	March_15_2016_fps_avg_aud.mp4	0	0	0.650818	0	1	right	green	1	0.421	high
404	7	5	0	self	0.5	0.516462	yellow	1	down	down	GLO	left	far	1	intact	intact	648cf5a2-5dc9-46b3-bf61-9e51533fa6ad_fps_avg_aud.mp4	0	0	0.916439	0	1	left	yellow	1	0.431	high
404	7	6	0	self	0.5	0.516711	blue	1	down	down	GLO	left	far	1	intact	intact	16ad27d6-0718-41b8-94e7-1c37789ce6cb_fps_avg_aud.mp4	0	0	1.5121	0	1	up	blue	1	0.441	high
404	7	7	0	self	0.5	0.516264	yellow	0	left	left	GLO	left	far	1	intact	intact	May19_fps_avg_aud.mp4	0	0	1.33049	0	1	left	yellow	1	0.451	high
404	7	8	0	self	0.5	0.516462	blue	1	right	right	GLO	right	close	1	intact	intact	15914fca-fb16-47ce-929a-161ca2c1fdf7_fps_avg_aud.mp4	0	0	3.60877	0	1	down	red	0	0.441	high
404	7	9	0	self	0.5	0.516167	blue	0	up	up	GLO	right	far	1	intact	intact	8fa6e47a-355a-4a52-986e-ef49886619e0_fps_avg_aud.mp4	0	0	0.900409	0	1	down	red	0	0.431	high
404	7	10	0	self	0.5	0.516117	yellow	0	left	left	GLO	right	far	1	intact	intact	06166668-1aac-4d03-b242-d4a5635a694b_fps_avg_aud.mp4	0	0	1.14213	0	1	left	yellow	1	0.441	high
404	7	11	0	self	0.5	0.516298	red	0	down	down	GLO	left	close	1	intact	intact	april_23_2015_fps_avg_aud.mp4	0	0	1.39436	0	1	down	red	1	0.451	high
