ID	Block	Trials	Practice	VideoStart	ITI	ITI_measured	Color	Conflict	Global	Local	Task	Video_pos	Video_dist	Video_present	Video_cat_cond	Video_cat	Video	VideoPlayed	VideoCheck	RT	DT	Visits	KeyPress	KeyColor	Correct	Reward	RewardCond
405	1	1	1	none	1.5	1.47759	yellow	1	right	right	GLO	right	far	0	intact	none	none	0	0	0.604132	0	1	left	yellow	1	0	0
405	1	2	1	none	1.5	1.51685	green	1	left	left	GLO	left	close	0	intact	none	none	0	0	0.615753	0	1	right	green	1	0	0
405	1	3	1	none	1.5	1.51577	red	1	right	right	GLO	right	far	0	intact	none	none	0	0	1.2362	0	1	down	red	1	0	0
405	1	4	1	none	1.5	1.51715	blue	1	right	right	GLO	left	far	0	intact	none	none	0	0	1.01132	0	1	up	blue	1	0	0
405	1	5	1	none	1.5	1.51687	blue	0	up	up	GLO	right	far	0	intact	none	none	0	0	0.561417	0	1	up	blue	1	0	0
405	1	6	1	none	1.5	1.51698	blue	0	up	up	GLO	right	far	0	intact	none	none	0	0	0.466376	0	1	up	blue	1	0	0
405	1	7	1	none	1.5	1.51594	red	0	down	down	GLO	right	far	0	intact	none	none	0	0	0.632236	0	1	down	red	1	0	0
405	1	8	1	none	1.5	1.51588	yellow	1	down	down	GLO	left	close	0	intact	none	none	0	0	0.665941	0	1	left	yellow	1	0	0
405	1	9	1	none	1.5	1.51682	red	0	down	down	GLO	right	close	0	intact	none	none	0	0	0.666605	0	1	down	red	1	0	0
405	1	10	1	none	1.5	1.51695	blue	1	left	left	GLO	right	far	0	intact	none	none	0	0	0.650327	0	1	up	blue	1	0	0
405	1	11	1	none	1.5	1.51737	green	1	down	down	GLO	left	far	0	intact	none	none	0	0	0.632799	0	1	right	green	1	0	0
405	1	12	1	none	1.5	1.51702	blue	1	down	down	GLO	right	far	0	intact	none	none	0	0	1.46648	0	1	up	blue	1	0	0
405	1	13	1	none	1.5	1.51696	red	0	down	down	GLO	right	far	0	intact	none	none	0	0	0.449669	0	1	down	red	1	0	0
405	1	14	1	none	1.5	1.51675	yellow	1	down	down	GLO	right	close	0	intact	none	none	0	0	0.599973	0	1	left	yellow	1	0	0
405	1	15	1	none	1.5	1.51671	green	0	right	right	GLO	left	far	0	intact	none	none	0	0	0.548081	0	1	right	green	1	0	0
405	1	16	1	none	1.5	1.51585	green	1	left	left	GLO	left	close	0	intact	none	none	0	0	0.766641	0	1	right	green	1	0	0
405	1	17	1	none	1.5	1.51654	green	0	right	right	GLO	right	far	0	intact	none	none	0	0	0.450706	0	1	right	green	1	0	0
405	1	18	1	none	1.5	1.51562	green	0	right	right	GLO	left	close	0	intact	none	none	0	0	0.433179	0	1	right	green	1	0	0
405	1	19	1	none	1.5	1.51585	red	1	up	up	GLO	left	far	0	intact	none	none	0	0	0.50033	0	1	up	blue	0	0	0
405	1	20	1	none	1.5	1.51715	yellow	0	left	left	GLO	right	far	0	intact	none	none	0	0	0.56138	0	1	left	yellow	1	0	0
405	1	21	1	none	1.5	1.51579	yellow	1	up	up	GLO	right	far	0	intact	none	none	0	0	0.600242	0	1	left	yellow	1	0	0
405	1	22	1	none	1.5	1.51694	green	1	left	left	GLO	right	far	0	intact	none	none	0	0	0.616683	0	1	right	green	1	0	0
405	1	23	1	none	1.5	1.51588	green	1	up	up	GLO	left	close	0	intact	none	none	0	0	0.540432	0	1	right	green	1	0	0
405	1	24	1	none	1.5	1.51583	yellow	0	left	left	GLO	right	far	0	intact	none	none	0	0	0.716661	0	1	left	yellow	1	0	0
405	1	25	1	none	1.5	1.51572	yellow	0	left	left	GLO	left	close	0	intact	none	none	0	0	0.401094	0	1	left	yellow	1	0	0
405	1	26	1	none	1.5	1.51582	blue	1	down	down	GLO	right	close	0	intact	none	none	0	0	0.781893	0	1	down	red	0	0	0
405	1	27	1	none	1.5	1.51584	green	1	up	up	GLO	left	close	0	intact	none	none	0	0	0.733348	0	1	right	green	1	0	0
405	1	28	1	none	1.5	1.51664	blue	1	down	down	GLO	right	close	0	intact	none	none	0	0	0.416998	0	1	up	blue	1	0	0
405	1	29	1	none	1.5	1.51774	green	0	right	right	GLO	right	far	0	intact	none	none	0	0	0.581809	0	1	right	green	1	0	0
405	1	30	1	none	1.5	1.51719	red	1	left	left	GLO	left	close	0	intact	none	none	0	0	0.866731	0	1	down	red	1	0	0
405	1	31	1	none	1.5	1.51705	red	0	down	down	GLO	left	far	0	intact	none	none	0	0	0.432119	0	1	down	red	1	0	0
405	1	32	1	none	1.5	1.51693	red	0	down	down	GLO	right	close	0	intact	none	none	0	0	0.366239	0	1	down	red	1	0	0
405	1	33	1	none	1.5	1.51572	yellow	1	right	right	GLO	left	close	0	intact	none	none	0	0	0.433637	0	1	right	green	0	0	0
405	1	34	1	none	1.5	1.51593	green	0	right	right	GLO	left	close	0	intact	none	none	0	0	0.695316	0	1	right	green	1	0	0
405	1	35	1	none	1.5	1.51583	yellow	0	left	left	GLO	left	far	0	intact	none	none	0	0	0.547686	0	1	left	yellow	1	0	0
405	1	36	1	none	1.5	1.51723	blue	0	up	up	GLO	left	far	0	intact	none	none	0	0	0.483443	0	1	up	blue	1	0	0
405	1	37	1	none	1.5	1.51722	yellow	0	left	left	GLO	left	close	0	intact	none	none	0	0	0.599524	0	1	left	yellow	1	0	0
405	1	38	1	none	1.5	1.51695	red	1	up	up	GLO	left	far	0	intact	none	none	0	0	0.683477	0	1	down	red	1	0	0
405	1	39	1	none	0.5	0.517414	yellow	0	left	left	GLO	right	close	0	intact	none	none	0	0	0.631208	0	1	left	yellow	1	0	0
405	1	40	1	none	0.5	0.51722	green	1	up	up	GLO	right	close	0	intact	none	none	0	0	0.789988	0	1	up	blue	0	0	0
405	1	41	1	none	0.5	0.516116	red	0	down	down	GLO	right	close	0	intact	none	none	0	0	0.683737	0	1	down	red	1	0	0
405	1	42	1	none	0.5	0.515719	green	0	right	right	GLO	right	far	0	intact	none	none	0	0	0.417546	0	1	right	green	1	0	0
405	1	43	1	none	0.5	0.516661	blue	1	left	left	GLO	left	close	0	intact	none	none	0	0	0.464658	0	1	left	yellow	0	0	0
405	1	44	1	none	0.5	0.51676	yellow	0	left	left	GLO	left	far	0	intact	none	none	0	0	1.09966	0	1	left	yellow	1	0	0
405	1	45	1	none	0.5	0.517399	yellow	0	left	left	GLO	left	far	0	intact	none	none	0	0	0.482804	0	1	left	yellow	1	0	0
405	1	46	1	none	0.5	0.517015	green	1	up	up	GLO	right	close	0	intact	none	none	0	0	1.01627	0	1	up	blue	0	0	0
405	1	47	1	none	0.5	0.516788	red	1	left	left	GLO	right	far	0	intact	none	none	0	0	0.867454	0	1	down	red	1	0	0
405	1	48	1	none	0.5	0.51649	green	1	up	up	GLO	left	close	0	intact	none	none	0	0	0.616019	0	1	right	green	1	0	0
405	1	49	1	none	0.5	0.516773	green	1	left	left	GLO	left	close	0	intact	none	none	0	0	0.567256	0	1	right	green	1	0	0
405	1	50	1	none	0.5	0.515836	blue	0	up	up	GLO	right	far	0	intact	none	none	0	0	0.667539	0	1	up	blue	1	0	0
405	1	51	1	none	0.5	0.516973	yellow	1	right	right	GLO	right	close	0	intact	none	none	0	0	0.5328	0	1	left	yellow	1	0	0
405	1	52	1	none	0.5	0.517138	green	1	left	left	GLO	left	far	0	intact	none	none	0	0	0.900024	0	1	right	green	1	0	0
405	1	53	1	none	0.5	0.516087	green	0	right	right	GLO	right	close	0	intact	none	none	0	0	0.500739	0	1	right	green	1	0	0
405	1	54	1	none	0.5	0.517003	yellow	0	left	left	GLO	right	close	0	intact	none	none	0	0	0.533391	0	1	left	yellow	1	0	0
405	1	55	1	none	0.5	0.51702	green	0	right	right	GLO	left	far	0	intact	none	none	0	0	0.550185	0	1	right	green	1	0	0
405	1	56	1	none	0.5	0.51719	red	1	right	right	GLO	left	far	0	intact	none	none	0	0	0.479107	0	1	down	red	1	0	0
405	1	57	1	none	0.5	0.516806	blue	1	right	right	GLO	left	far	0	intact	none	none	0	0	0.464864	0	1	up	blue	1	0	0
405	1	58	1	none	0.5	0.516945	red	1	left	left	GLO	right	close	0	intact	none	none	0	0	0.632832	0	1	down	red	1	0	0
405	1	59	1	none	0.5	0.517266	yellow	0	left	left	GLO	right	far	0	intact	none	none	0	0	0.52509	0	1	left	yellow	1	0	0
405	1	60	1	none	0.5	0.517031	green	0	right	right	GLO	left	far	0	intact	none	none	0	0	0.384752	0	1	right	green	1	0	0
405	1	61	1	none	0.5	0.515966	yellow	0	left	left	GLO	right	far	0	intact	none	none	0	0	0.567023	0	1	left	yellow	1	0	0
405	1	62	1	none	0.5	0.517013	red	0	down	down	GLO	left	close	0	intact	none	none	0	0	0.633034	0	1	down	red	1	0	0
405	1	63	1	none	0.5	0.515656	blue	0	up	up	GLO	right	close	0	intact	none	none	0	0	0.408116	0	1	up	blue	1	0	0
405	1	64	1	none	0.5	0.517414	green	1	left	left	GLO	left	close	0	intact	none	none	0	0	0.557849	0	1	right	green	1	0	0
405	1	65	1	none	0.5	0.515902	green	1	left	left	GLO	right	far	0	intact	none	none	0	0	0.528847	0	1	right	green	1	0	0
405	1	66	1	none	0.5	0.515994	yellow	0	left	left	GLO	right	close	0	intact	none	none	0	0	0.417284	0	1	left	yellow	1	0	0
405	1	67	1	none	0.5	0.51578	yellow	0	left	left	GLO	right	far	0	intact	none	none	0	0	0.501034	0	1	left	yellow	1	0	0
405	1	68	1	none	0.5	0.515843	yellow	1	up	up	GLO	right	far	0	intact	none	none	0	0	0.667893	0	1	left	yellow	1	0	0
405	1	69	1	none	0.5	0.516947	green	0	right	right	GLO	right	far	0	intact	none	none	0	0	0.416573	0	1	right	green	1	0	0
405	1	70	1	none	0.5	0.517309	yellow	1	up	up	GLO	right	close	0	intact	none	none	0	0	0.52849	0	1	left	yellow	1	0	0
405	1	71	1	none	0.5	0.517204	yellow	1	right	right	GLO	left	far	0	intact	none	none	0	0	0.532233	0	1	left	yellow	1	0	0
405	1	72	1	none	0.5	0.51729	yellow	0	left	left	GLO	left	close	0	intact	none	none	0	0	0.533122	0	1	left	yellow	1	0	0
405	1	73	1	none	0.5	0.517296	red	1	left	left	GLO	right	close	0	intact	none	none	0	0	0.458136	0	1	down	red	1	0	0
405	1	74	1	none	0.5	0.516064	yellow	0	left	left	GLO	left	close	0	intact	none	none	0	0	0.617001	0	1	left	yellow	1	0	0
405	1	75	1	none	0.5	0.516711	red	0	down	down	GLO	left	far	0	intact	none	none	0	0	0.7667	0	1	down	red	1	0	0
405	1	76	1	none	0.5	0.517333	red	0	down	down	GLO	left	close	0	intact	none	none	0	0	0.480166	0	1	down	red	1	0	0
405	1	77	1	none	0.5	0.517048	yellow	1	down	down	GLO	left	close	0	intact	none	none	0	0	0.933228	0	1	left	yellow	1	0	0
405	1	78	1	none	0.5	0.517076	red	0	down	down	GLO	left	close	0	intact	none	none	0	0	0.450044	0	1	down	red	1	0	0
405	1	79	1	none	0.5	0.517186	green	1	up	up	GLO	right	far	0	intact	none	none	0	0	0.632839	0	1	right	green	1	0	0
405	1	80	1	none	0.5	0.516526	red	0	down	down	GLO	right	close	0	intact	none	none	0	0	0.645971	0	1	down	red	1	0	0
405	1	81	1	none	0.5	0.516922	green	0	right	right	GLO	left	close	0	intact	none	none	0	0	0.566987	0	1	right	green	1	0	0
405	1	82	1	none	0.5	0.517294	yellow	0	left	left	GLO	left	close	0	intact	none	none	0	0	0.566178	0	1	left	yellow	1	0	0
405	1	83	1	none	0.5	0.51598	green	0	right	right	GLO	left	far	0	intact	none	none	0	0	0.450116	0	1	right	green	1	0	0
405	1	84	1	none	0.5	0.516931	blue	0	up	up	GLO	right	far	0	intact	none	none	0	0	0.550442	0	1	up	blue	1	0	0
405	1	85	1	none	0.5	0.51716	red	0	down	down	GLO	right	close	0	intact	none	none	0	0	0.583938	0	1	down	red	1	0	0
405	1	86	1	none	0.5	0.517259	yellow	1	right	right	GLO	right	close	0	intact	none	none	0	0	0.778387	0	1	right	green	0	0	0
405	1	87	1	none	0.5	0.51719	green	1	up	up	GLO	left	far	0	intact	none	none	0	0	0.399424	0	1	right	green	1	0	0
405	1	88	1	none	0.5	0.515804	green	1	left	left	GLO	right	close	0	intact	none	none	0	0	0.466829	0	1	right	green	1	0	0
405	1	89	1	none	0.5	0.516809	red	1	right	right	GLO	right	far	0	intact	none	none	0	0	0.743206	0	1	down	red	1	0	0
405	1	90	1	none	0.5	0.515746	yellow	1	down	down	GLO	left	far	0	intact	none	none	0	0	0.700174	0	1	left	yellow	1	0	0
405	1	91	1	none	0.5	0.517129	yellow	1	right	right	GLO	left	close	0	intact	none	none	0	0	0.532923	0	1	left	yellow	1	0	0
405	1	92	1	none	0.5	0.51695	red	0	down	down	GLO	right	far	0	intact	none	none	0	0	0.61701	0	1	down	red	1	0	0
405	1	93	1	none	0.5	0.517166	blue	0	up	up	GLO	right	far	0	intact	none	none	0	0	0.516988	0	1	up	blue	1	0	0
405	1	94	1	none	0.5	0.515907	blue	1	left	left	GLO	right	far	0	intact	none	none	0	0	0.601225	0	1	up	blue	1	0	0
405	1	95	1	none	0.5	0.517162	green	0	right	right	GLO	left	close	0	intact	none	none	0	0	0.950235	0	1	right	green	1	0	0
405	1	96	1	none	0.5	0.516893	red	0	down	down	GLO	right	far	0	intact	none	none	0	0	0.55024	0	1	down	red	1	0	0
405	1	97	1	none	0.5	0.517023	yellow	1	right	right	GLO	right	close	0	intact	none	none	0	0	0.916071	0	1	left	yellow	1	0	0
405	1	98	1	none	0.5	0.516593	red	0	down	down	GLO	left	far	0	intact	none	none	0	0	0.483582	0	1	down	red	1	0	0
405	1	99	1	none	0.5	0.517428	blue	0	up	up	GLO	left	close	0	intact	none	none	0	0	0.408337	0	1	up	blue	1	0	0
405	1	100	1	none	0.5	0.515939	blue	0	up	up	GLO	left	far	0	intact	none	none	0	0	0.534776	0	1	up	blue	1	0	0
405	1	101	1	none	0.5	0.515733	green	1	up	up	GLO	left	far	0	intact	none	none	0	0	0.617147	0	1	right	green	1	0	0
405	1	102	1	none	0.5	0.517282	yellow	1	up	up	GLO	left	far	0	intact	none	none	0	0	0.616271	0	1	left	yellow	1	0	0
405	1	103	1	none	0.5	0.516573	yellow	1	down	down	GLO	left	far	0	intact	none	none	0	0	0.893222	0	1	left	yellow	1	0	0
405	1	104	1	none	0.5	NaN	yellow	0	left	left	GLO	none	close	0	intact	none	none	0	0	NaN	NaN	NaN	none	none	NaN	0	0
405	1	105	1	none	0.5	NaN	red	0	down	down	GLO	none	close	0	intact	none	none	0	0	NaN	NaN	NaN	none	none	NaN	0	0
405	1	106	1	none	0.5	NaN	blue	0	up	up	GLO	none	far	0	intact	none	none	0	0	NaN	NaN	NaN	none	none	NaN	0	0
405	1	107	1	none	0.5	NaN	yellow	1	right	right	GLO	none	far	0	intact	none	none	0	0	NaN	NaN	NaN	none	none	NaN	0	0
405	1	108	1	none	0.5	NaN	blue	1	right	right	GLO	none	close	0	intact	none	none	0	0	NaN	NaN	NaN	none	none	NaN	0	0
405	1	109	1	none	0.5	NaN	red	0	down	down	GLO	none	close	0	intact	none	none	0	0	NaN	NaN	NaN	none	none	NaN	0	0
405	1	110	1	none	0.5	NaN	green	0	right	right	GLO	none	close	0	intact	none	none	0	0	NaN	NaN	NaN	none	none	NaN	0	0
405	1	111	1	none	0.5	NaN	blue	1	down	down	GLO	none	far	0	intact	none	none	0	0	NaN	NaN	NaN	none	none	NaN	0	0
405	1	112	1	none	0.5	NaN	yellow	0	left	left	GLO	none	close	0	intact	none	none	0	0	NaN	NaN	NaN	none	none	NaN	0	0
405	1	113	1	none	0.5	NaN	green	0	right	right	GLO	none	close	0	intact	none	none	0	0	NaN	NaN	NaN	none	none	NaN	0	0
405	1	114	1	none	0.5	NaN	yellow	0	left	left	GLO	none	close	0	intact	none	none	0	0	NaN	NaN	NaN	none	none	NaN	0	0
405	1	115	1	none	0.5	NaN	blue	0	up	up	GLO	none	close	0	intact	none	none	0	0	NaN	NaN	NaN	none	none	NaN	0	0
405	1	116	1	none	0.5	NaN	red	0	down	down	GLO	none	close	0	intact	none	none	0	0	NaN	NaN	NaN	none	none	NaN	0	0
405	1	117	1	none	0.5	NaN	green	0	right	right	GLO	none	far	0	intact	none	none	0	0	NaN	NaN	NaN	none	none	NaN	0	0
405	1	118	1	none	0.5	NaN	blue	1	down	down	GLO	none	far	0	intact	none	none	0	0	NaN	NaN	NaN	none	none	NaN	0	0
405	1	119	1	none	0.5	NaN	blue	0	up	up	GLO	none	close	0	intact	none	none	0	0	NaN	NaN	NaN	none	none	NaN	0	0
405	1	120	1	none	0.5	NaN	green	1	left	left	GLO	none	far	0	intact	none	none	0	0	NaN	NaN	NaN	none	none	NaN	0	0
405	1	121	1	none	0.5	NaN	yellow	1	down	down	GLO	none	far	0	intact	none	none	0	0	NaN	NaN	NaN	none	none	NaN	0	0
405	1	122	1	none	0.5	NaN	red	0	down	down	GLO	none	far	0	intact	none	none	0	0	NaN	NaN	NaN	none	none	NaN	0	0
405	1	123	1	none	0.5	NaN	red	1	left	left	GLO	none	far	0	intact	none	none	0	0	NaN	NaN	NaN	none	none	NaN	0	0
405	1	124	1	none	0.5	NaN	red	0	down	down	GLO	none	far	0	intact	none	none	0	0	NaN	NaN	NaN	none	none	NaN	0	0
405	1	125	1	none	0.5	NaN	yellow	0	left	left	GLO	none	far	0	intact	none	none	0	0	NaN	NaN	NaN	none	none	NaN	0	0
405	1	126	1	none	0.5	NaN	red	0	down	down	GLO	none	far	0	intact	none	none	0	0	NaN	NaN	NaN	none	none	NaN	0	0
405	1	127	1	none	0.5	NaN	blue	1	right	right	GLO	none	close	0	intact	none	none	0	0	NaN	NaN	NaN	none	none	NaN	0	0
405	1	128	1	none	0.5	NaN	green	0	right	right	GLO	none	far	0	intact	none	none	0	0	NaN	NaN	NaN	none	none	NaN	0	0
405	1	129	1	none	0.5	NaN	blue	0	up	up	GLO	none	close	0	intact	none	none	0	0	NaN	NaN	NaN	none	none	NaN	0	0
405	1	130	1	none	0.5	NaN	blue	0	up	up	GLO	none	close	0	intact	none	none	0	0	NaN	NaN	NaN	none	none	NaN	0	0
405	1	131	1	none	0.5	NaN	blue	1	left	left	GLO	none	far	0	intact	none	none	0	0	NaN	NaN	NaN	none	none	NaN	0	0
405	1	132	1	none	0.5	NaN	green	0	right	right	GLO	none	far	0	intact	none	none	0	0	NaN	NaN	NaN	none	none	NaN	0	0
405	1	133	1	none	0.5	NaN	green	1	up	up	GLO	none	far	0	intact	none	none	0	0	NaN	NaN	NaN	none	none	NaN	0	0
405	1	134	1	none	0.5	NaN	blue	0	up	up	GLO	none	far	0	intact	none	none	0	0	NaN	NaN	NaN	none	none	NaN	0	0
405	1	135	1	none	0.5	NaN	yellow	1	down	down	GLO	none	far	0	intact	none	none	0	0	NaN	NaN	NaN	none	none	NaN	0	0
405	1	136	1	none	0.5	NaN	blue	0	up	up	GLO	none	far	0	intact	none	none	0	0	NaN	NaN	NaN	none	none	NaN	0	0
405	1	137	1	none	0.5	NaN	blue	0	up	up	GLO	none	close	0	intact	none	none	0	0	NaN	NaN	NaN	none	none	NaN	0	0
405	1	138	1	none	0.5	NaN	red	1	right	right	GLO	none	far	0	intact	none	none	0	0	NaN	NaN	NaN	none	none	NaN	0	0
405	1	139	1	none	0.5	NaN	red	0	down	down	GLO	none	close	0	intact	none	none	0	0	NaN	NaN	NaN	none	none	NaN	0	0
405	1	140	1	none	0.5	NaN	green	0	right	right	GLO	none	close	0	intact	none	none	0	0	NaN	NaN	NaN	none	none	NaN	0	0
405	1	141	1	none	0.5	NaN	blue	1	left	left	GLO	none	close	0	intact	none	none	0	0	NaN	NaN	NaN	none	none	NaN	0	0
405	1	142	1	none	0.5	NaN	green	1	left	left	GLO	none	far	0	intact	none	none	0	0	NaN	NaN	NaN	none	none	NaN	0	0
405	1	143	1	none	0.5	NaN	blue	0	up	up	GLO	none	far	0	intact	none	none	0	0	NaN	NaN	NaN	none	none	NaN	0	0
405	1	144	1	none	0.5	NaN	yellow	1	up	up	GLO	none	far	0	intact	none	none	0	0	NaN	NaN	NaN	none	none	NaN	0	0
405	1	145	1	none	0.5	NaN	red	1	left	left	GLO	none	far	0	intact	none	none	0	0	NaN	NaN	NaN	none	none	NaN	0	0
405	1	146	1	none	0.5	NaN	green	0	right	right	GLO	none	far	0	intact	none	none	0	0	NaN	NaN	NaN	none	none	NaN	0	0
405	1	147	1	none	0.5	NaN	red	1	left	left	GLO	none	close	0	intact	none	none	0	0	NaN	NaN	NaN	none	none	NaN	0	0
405	1	148	1	none	0.5	NaN	green	0	right	right	GLO	none	close	0	intact	none	none	0	0	NaN	NaN	NaN	none	none	NaN	0	0
405	1	149	1	none	0.5	NaN	blue	0	up	up	GLO	none	far	0	intact	none	none	0	0	NaN	NaN	NaN	none	none	NaN	0	0
405	1	150	1	none	0.5	NaN	yellow	1	up	up	GLO	none	far	0	intact	none	none	0	0	NaN	NaN	NaN	none	none	NaN	0	0
405	1	151	1	none	0.5	NaN	green	0	right	right	GLO	none	far	0	intact	none	none	0	0	NaN	NaN	NaN	none	none	NaN	0	0
405	1	152	1	none	0.5	NaN	blue	1	left	left	GLO	none	close	0	intact	none	none	0	0	NaN	NaN	NaN	none	none	NaN	0	0
405	1	153	1	none	0.5	NaN	red	0	down	down	GLO	none	far	0	intact	none	none	0	0	NaN	NaN	NaN	none	none	NaN	0	0
405	1	154	1	none	0.5	NaN	green	1	left	left	GLO	none	far	0	intact	none	none	0	0	NaN	NaN	NaN	none	none	NaN	0	0
405	1	155	1	none	0.5	NaN	red	1	up	up	GLO	none	close	0	intact	none	none	0	0	NaN	NaN	NaN	none	none	NaN	0	0
405	1	156	1	none	0.5	NaN	green	0	right	right	GLO	none	close	0	intact	none	none	0	0	NaN	NaN	NaN	none	none	NaN	0	0
405	1	157	1	none	0.5	NaN	green	0	right	right	GLO	none	far	0	intact	none	none	0	0	NaN	NaN	NaN	none	none	NaN	0	0
405	1	158	1	none	0.5	NaN	green	0	right	right	GLO	none	far	0	intact	none	none	0	0	NaN	NaN	NaN	none	none	NaN	0	0
405	1	159	1	none	0.5	NaN	red	0	down	down	GLO	none	far	0	intact	none	none	0	0	NaN	NaN	NaN	none	none	NaN	0	0
405	1	160	1	none	0.5	NaN	red	0	down	down	GLO	none	close	0	intact	none	none	0	0	NaN	NaN	NaN	none	none	NaN	0	0
405	1	161	1	none	0.5	NaN	green	1	up	up	GLO	none	far	0	intact	none	none	0	0	NaN	NaN	NaN	none	none	NaN	0	0
405	1	162	1	none	0.5	NaN	green	1	down	down	GLO	none	close	0	intact	none	none	0	0	NaN	NaN	NaN	none	none	NaN	0	0
405	1	163	1	none	0.5	NaN	green	0	right	right	GLO	none	close	0	intact	none	none	0	0	NaN	NaN	NaN	none	none	NaN	0	0
405	1	164	1	none	0.5	NaN	yellow	1	up	up	GLO	none	close	0	intact	none	none	0	0	NaN	NaN	NaN	none	none	NaN	0	0
405	1	165	1	none	0.5	NaN	yellow	0	left	left	GLO	none	close	0	intact	none	none	0	0	NaN	NaN	NaN	none	none	NaN	0	0
405	1	166	1	none	0.5	NaN	blue	1	down	down	GLO	none	close	0	intact	none	none	0	0	NaN	NaN	NaN	none	none	NaN	0	0
405	1	167	1	none	0.5	NaN	yellow	0	left	left	GLO	none	close	0	intact	none	none	0	0	NaN	NaN	NaN	none	none	NaN	0	0
405	1	168	1	none	0.5	NaN	yellow	1	down	down	GLO	none	far	0	intact	none	none	0	0	NaN	NaN	NaN	none	none	NaN	0	0
405	1	169	1	none	0.5	NaN	green	1	left	left	GLO	none	far	0	intact	none	none	0	0	NaN	NaN	NaN	none	none	NaN	0	0
405	1	170	1	none	0.5	NaN	yellow	1	down	down	GLO	none	close	0	intact	none	none	0	0	NaN	NaN	NaN	none	none	NaN	0	0
405	1	171	1	none	0.5	NaN	green	0	right	right	GLO	none	close	0	intact	none	none	0	0	NaN	NaN	NaN	none	none	NaN	0	0
405	1	172	1	none	0.5	NaN	red	1	left	left	GLO	none	close	0	intact	none	none	0	0	NaN	NaN	NaN	none	none	NaN	0	0
405	1	173	1	none	0.5	NaN	red	1	right	right	GLO	none	far	0	intact	none	none	0	0	NaN	NaN	NaN	none	none	NaN	0	0
405	1	174	1	none	0.5	NaN	red	1	up	up	GLO	none	far	0	intact	none	none	0	0	NaN	NaN	NaN	none	none	NaN	0	0
405	1	175	1	none	0.5	NaN	green	1	left	left	GLO	none	far	0	intact	none	none	0	0	NaN	NaN	NaN	none	none	NaN	0	0
405	1	176	1	none	0.5	NaN	yellow	1	up	up	GLO	none	far	0	intact	none	none	0	0	NaN	NaN	NaN	none	none	NaN	0	0
405	1	177	1	none	0.5	NaN	green	0	right	right	GLO	none	close	0	intact	none	none	0	0	NaN	NaN	NaN	none	none	NaN	0	0
405	1	178	1	none	0.5	NaN	red	1	up	up	GLO	none	close	0	intact	none	none	0	0	NaN	NaN	NaN	none	none	NaN	0	0
405	1	179	1	none	0.5	NaN	red	1	up	up	GLO	none	close	0	intact	none	none	0	0	NaN	NaN	NaN	none	none	NaN	0	0
405	1	180	1	none	0.5	NaN	blue	1	down	down	GLO	none	close	0	intact	none	none	0	0	NaN	NaN	NaN	none	none	NaN	0	0
405	1	181	1	none	0.5	NaN	red	0	down	down	GLO	none	close	0	intact	none	none	0	0	NaN	NaN	NaN	none	none	NaN	0	0
405	1	182	1	none	0.5	NaN	blue	0	up	up	GLO	none	far	0	intact	none	none	0	0	NaN	NaN	NaN	none	none	NaN	0	0
405	1	183	1	none	0.5	NaN	red	1	right	right	GLO	none	far	0	intact	none	none	0	0	NaN	NaN	NaN	none	none	NaN	0	0
405	1	184	1	none	0.5	NaN	yellow	0	left	left	GLO	none	close	0	intact	none	none	0	0	NaN	NaN	NaN	none	none	NaN	0	0
405	1	185	1	none	0.5	NaN	blue	0	up	up	GLO	none	far	0	intact	none	none	0	0	NaN	NaN	NaN	none	none	NaN	0	0
405	1	186	1	none	0.5	NaN	red	0	down	down	GLO	none	close	0	intact	none	none	0	0	NaN	NaN	NaN	none	none	NaN	0	0
405	1	187	1	none	0.5	NaN	yellow	0	left	left	GLO	none	close	0	intact	none	none	0	0	NaN	NaN	NaN	none	none	NaN	0	0
405	1	188	1	none	0.5	NaN	red	0	down	down	GLO	none	far	0	intact	none	none	0	0	NaN	NaN	NaN	none	none	NaN	0	0
405	1	189	1	none	0.5	NaN	green	0	right	right	GLO	none	far	0	intact	none	none	0	0	NaN	NaN	NaN	none	none	NaN	0	0
405	1	190	1	none	0.5	NaN	yellow	0	left	left	GLO	none	close	0	intact	none	none	0	0	NaN	NaN	NaN	none	none	NaN	0	0
405	1	191	1	none	0.5	NaN	red	1	right	right	GLO	none	close	0	intact	none	none	0	0	NaN	NaN	NaN	none	none	NaN	0	0
405	1	192	1	none	0.5	NaN	red	1	right	right	GLO	none	close	0	intact	none	none	0	0	NaN	NaN	NaN	none	none	NaN	0	0
405	1	193	1	none	0.5	NaN	yellow	0	left	left	GLO	none	close	0	intact	none	none	0	0	NaN	NaN	NaN	none	none	NaN	0	0
405	1	194	1	none	0.5	NaN	red	1	up	up	GLO	none	close	0	intact	none	none	0	0	NaN	NaN	NaN	none	none	NaN	0	0
405	1	195	1	none	0.5	NaN	green	0	right	right	GLO	none	close	0	intact	none	none	0	0	NaN	NaN	NaN	none	none	NaN	0	0
405	1	196	1	none	0.5	NaN	yellow	0	left	left	GLO	none	close	0	intact	none	none	0	0	NaN	NaN	NaN	none	none	NaN	0	0
405	1	197	1	none	0.5	NaN	green	1	up	up	GLO	none	far	0	intact	none	none	0	0	NaN	NaN	NaN	none	none	NaN	0	0
405	1	198	1	none	0.5	NaN	blue	0	up	up	GLO	none	close	0	intact	none	none	0	0	NaN	NaN	NaN	none	none	NaN	0	0
405	1	199	1	none	0.5	NaN	yellow	0	left	left	GLO	none	far	0	intact	none	none	0	0	NaN	NaN	NaN	none	none	NaN	0	0
405	1	200	1	none	0.5	NaN	blue	0	up	up	GLO	none	far	0	intact	none	none	0	0	NaN	NaN	NaN	none	none	NaN	0	0
405	1	201	1	none	0.5	NaN	green	1	left	left	GLO	none	close	0	intact	none	none	0	0	NaN	NaN	NaN	none	none	NaN	0	0
405	1	202	1	none	0.5	NaN	yellow	0	left	left	GLO	none	far	0	intact	none	none	0	0	NaN	NaN	NaN	none	none	NaN	0	0
405	1	203	1	none	0.5	NaN	red	1	up	up	GLO	none	close	0	intact	none	none	0	0	NaN	NaN	NaN	none	none	NaN	0	0
405	1	204	1	none	0.5	NaN	blue	1	down	down	GLO	none	close	0	intact	none	none	0	0	NaN	NaN	NaN	none	none	NaN	0	0
405	1	205	1	none	0.5	NaN	blue	1	down	down	GLO	none	close	0	intact	none	none	0	0	NaN	NaN	NaN	none	none	NaN	0	0
405	1	206	1	none	0.5	NaN	green	0	right	right	GLO	none	far	0	intact	none	none	0	0	NaN	NaN	NaN	none	none	NaN	0	0
405	1	207	1	none	0.5	NaN	yellow	1	up	up	GLO	none	close	0	intact	none	none	0	0	NaN	NaN	NaN	none	none	NaN	0	0
405	1	208	1	none	0.5	NaN	green	0	right	right	GLO	none	close	0	intact	none	none	0	0	NaN	NaN	NaN	none	none	NaN	0	0
405	1	209	1	none	0.5	NaN	green	0	right	right	GLO	none	far	0	intact	none	none	0	0	NaN	NaN	NaN	none	none	NaN	0	0
405	1	210	1	none	0.5	NaN	green	1	left	left	GLO	none	far	0	intact	none	none	0	0	NaN	NaN	NaN	none	none	NaN	0	0
405	1	211	1	none	0.5	NaN	yellow	1	right	right	GLO	none	close	0	intact	none	none	0	0	NaN	NaN	NaN	none	none	NaN	0	0
405	1	212	1	none	0.5	NaN	red	1	up	up	GLO	none	far	0	intact	none	none	0	0	NaN	NaN	NaN	none	none	NaN	0	0
405	1	213	1	none	0.5	NaN	blue	0	up	up	GLO	none	far	0	intact	none	none	0	0	NaN	NaN	NaN	none	none	NaN	0	0
405	1	214	1	none	0.5	NaN	red	1	up	up	GLO	none	far	0	intact	none	none	0	0	NaN	NaN	NaN	none	none	NaN	0	0
405	1	215	1	none	0.5	NaN	blue	1	right	right	GLO	none	far	0	intact	none	none	0	0	NaN	NaN	NaN	none	none	NaN	0	0
405	1	216	1	none	0.5	NaN	red	1	right	right	GLO	none	far	0	intact	none	none	0	0	NaN	NaN	NaN	none	none	NaN	0	0
405	1	217	1	none	0.5	NaN	red	1	up	up	GLO	none	far	0	intact	none	none	0	0	NaN	NaN	NaN	none	none	NaN	0	0
405	1	218	1	none	0.5	NaN	blue	1	left	left	GLO	none	close	0	intact	none	none	0	0	NaN	NaN	NaN	none	none	NaN	0	0
405	1	219	1	none	0.5	NaN	blue	1	down	down	GLO	none	close	0	intact	none	none	0	0	NaN	NaN	NaN	none	none	NaN	0	0
405	1	220	1	none	0.5	NaN	yellow	0	left	left	GLO	none	close	0	intact	none	none	0	0	NaN	NaN	NaN	none	none	NaN	0	0
405	1	221	1	none	0.5	NaN	red	1	left	left	GLO	none	far	0	intact	none	none	0	0	NaN	NaN	NaN	none	none	NaN	0	0
405	1	222	1	none	0.5	NaN	yellow	0	left	left	GLO	none	far	0	intact	none	none	0	0	NaN	NaN	NaN	none	none	NaN	0	0
405	1	223	1	none	0.5	NaN	yellow	1	down	down	GLO	none	far	0	intact	none	none	0	0	NaN	NaN	NaN	none	none	NaN	0	0
405	1	224	1	none	0.5	NaN	red	1	up	up	GLO	none	far	0	intact	none	none	0	0	NaN	NaN	NaN	none	none	NaN	0	0
405	1	225	1	none	0.5	NaN	red	1	right	right	GLO	none	close	0	intact	none	none	0	0	NaN	NaN	NaN	none	none	NaN	0	0
405	1	226	1	none	0.5	NaN	yellow	1	down	down	GLO	none	far	0	intact	none	none	0	0	NaN	NaN	NaN	none	none	NaN	0	0
405	1	227	1	none	0.5	NaN	blue	0	up	up	GLO	none	close	0	intact	none	none	0	0	NaN	NaN	NaN	none	none	NaN	0	0
405	1	228	1	none	0.5	NaN	red	0	down	down	GLO	none	far	0	intact	none	none	0	0	NaN	NaN	NaN	none	none	NaN	0	0
405	1	229	1	none	0.5	NaN	red	1	left	left	GLO	none	far	0	intact	none	none	0	0	NaN	NaN	NaN	none	none	NaN	0	0
405	1	230	1	none	0.5	NaN	green	1	down	down	GLO	none	close	0	intact	none	none	0	0	NaN	NaN	NaN	none	none	NaN	0	0
405	1	231	1	none	0.5	NaN	green	0	right	right	GLO	none	far	0	intact	none	none	0	0	NaN	NaN	NaN	none	none	NaN	0	0
405	1	232	1	none	0.5	NaN	yellow	1	right	right	GLO	none	close	0	intact	none	none	0	0	NaN	NaN	NaN	none	none	NaN	0	0
405	1	233	1	none	0.5	NaN	yellow	0	left	left	GLO	none	far	0	intact	none	none	0	0	NaN	NaN	NaN	none	none	NaN	0	0
405	1	234	1	none	0.5	NaN	yellow	1	up	up	GLO	none	far	0	intact	none	none	0	0	NaN	NaN	NaN	none	none	NaN	0	0
405	1	235	1	none	0.5	NaN	blue	1	right	right	GLO	none	close	0	intact	none	none	0	0	NaN	NaN	NaN	none	none	NaN	0	0
405	1	236	1	none	0.5	NaN	green	1	up	up	GLO	none	close	0	intact	none	none	0	0	NaN	NaN	NaN	none	none	NaN	0	0
405	1	237	1	none	0.5	NaN	yellow	0	left	left	GLO	none	close	0	intact	none	none	0	0	NaN	NaN	NaN	none	none	NaN	0	0
405	1	238	1	none	0.5	NaN	yellow	1	up	up	GLO	none	far	0	intact	none	none	0	0	NaN	NaN	NaN	none	none	NaN	0	0
405	1	239	1	none	0.5	NaN	blue	1	down	down	GLO	none	close	0	intact	none	none	0	0	NaN	NaN	NaN	none	none	NaN	0	0
405	1	240	1	none	0.5	NaN	yellow	1	right	right	GLO	none	far	0	intact	none	none	0	0	NaN	NaN	NaN	none	none	NaN	0	0
405	1	241	1	none	0.5	NaN	yellow	0	left	left	GLO	none	close	0	intact	none	none	0	0	NaN	NaN	NaN	none	none	NaN	0	0
405	1	242	1	none	0.5	NaN	blue	0	up	up	GLO	none	far	0	intact	none	none	0	0	NaN	NaN	NaN	none	none	NaN	0	0
405	1	243	1	none	0.5	NaN	blue	1	down	down	GLO	none	close	0	intact	none	none	0	0	NaN	NaN	NaN	none	none	NaN	0	0
405	1	244	1	none	0.5	NaN	red	1	right	right	GLO	none	close	0	intact	none	none	0	0	NaN	NaN	NaN	none	none	NaN	0	0
405	1	245	1	none	0.5	NaN	blue	1	right	right	GLO	none	far	0	intact	none	none	0	0	NaN	NaN	NaN	none	none	NaN	0	0
405	1	246	1	none	0.5	NaN	yellow	1	up	up	GLO	none	far	0	intact	none	none	0	0	NaN	NaN	NaN	none	none	NaN	0	0
405	1	247	1	none	0.5	NaN	yellow	1	up	up	GLO	none	far	0	intact	none	none	0	0	NaN	NaN	NaN	none	none	NaN	0	0
405	1	248	1	none	0.5	NaN	yellow	1	down	down	GLO	none	far	0	intact	none	none	0	0	NaN	NaN	NaN	none	none	NaN	0	0
405	1	249	1	none	0.5	NaN	green	1	up	up	GLO	none	far	0	intact	none	none	0	0	NaN	NaN	NaN	none	none	NaN	0	0
405	1	250	1	none	0.5	NaN	blue	1	left	left	GLO	none	close	0	intact	none	none	0	0	NaN	NaN	NaN	none	none	NaN	0	0
405	1	251	1	none	0.5	NaN	yellow	0	left	left	GLO	none	far	0	intact	none	none	0	0	NaN	NaN	NaN	none	none	NaN	0	0
405	1	252	1	none	0.5	NaN	blue	0	up	up	GLO	none	far	0	intact	none	none	0	0	NaN	NaN	NaN	none	none	NaN	0	0
405	1	253	1	none	0.5	NaN	blue	0	up	up	GLO	none	far	0	intact	none	none	0	0	NaN	NaN	NaN	none	none	NaN	0	0
405	1	254	1	none	0.5	NaN	red	0	down	down	GLO	none	far	0	intact	none	none	0	0	NaN	NaN	NaN	none	none	NaN	0	0
405	1	255	1	none	0.5	NaN	blue	0	up	up	GLO	none	far	0	intact	none	none	0	0	NaN	NaN	NaN	none	none	NaN	0	0
405	1	256	1	none	0.5	NaN	yellow	0	left	left	GLO	none	close	0	intact	none	none	0	0	NaN	NaN	NaN	none	none	NaN	0	0
405	1	257	1	none	0.5	NaN	green	0	right	right	GLO	none	close	0	intact	none	none	0	0	NaN	NaN	NaN	none	none	NaN	0	0
405	1	258	1	none	0.5	NaN	blue	0	up	up	GLO	none	close	0	intact	none	none	0	0	NaN	NaN	NaN	none	none	NaN	0	0
405	1	259	1	none	0.5	NaN	yellow	1	right	right	GLO	none	close	0	intact	none	none	0	0	NaN	NaN	NaN	none	none	NaN	0	0
405	1	260	1	none	0.5	NaN	yellow	0	left	left	GLO	none	close	0	intact	none	none	0	0	NaN	NaN	NaN	none	none	NaN	0	0
405	1	261	1	none	0.5	NaN	blue	0	up	up	GLO	none	close	0	intact	none	none	0	0	NaN	NaN	NaN	none	none	NaN	0	0
405	1	262	1	none	0.5	NaN	yellow	1	right	right	GLO	none	close	0	intact	none	none	0	0	NaN	NaN	NaN	none	none	NaN	0	0
405	1	263	1	none	0.5	NaN	red	1	up	up	GLO	none	far	0	intact	none	none	0	0	NaN	NaN	NaN	none	none	NaN	0	0
405	1	264	1	none	0.5	NaN	yellow	0	left	left	GLO	none	far	0	intact	none	none	0	0	NaN	NaN	NaN	none	none	NaN	0	0
405	1	265	1	none	0.5	NaN	green	1	down	down	GLO	none	far	0	intact	none	none	0	0	NaN	NaN	NaN	none	none	NaN	0	0
405	1	266	1	none	0.5	NaN	yellow	1	down	down	GLO	none	far	0	intact	none	none	0	0	NaN	NaN	NaN	none	none	NaN	0	0
405	1	267	1	none	0.5	NaN	yellow	0	left	left	GLO	none	close	0	intact	none	none	0	0	NaN	NaN	NaN	none	none	NaN	0	0
405	1	268	1	none	0.5	NaN	yellow	0	left	left	GLO	none	close	0	intact	none	none	0	0	NaN	NaN	NaN	none	none	NaN	0	0
405	1	269	1	none	0.5	NaN	yellow	1	right	right	GLO	none	far	0	intact	none	none	0	0	NaN	NaN	NaN	none	none	NaN	0	0
405	1	270	1	none	0.5	NaN	blue	1	down	down	GLO	none	far	0	intact	none	none	0	0	NaN	NaN	NaN	none	none	NaN	0	0
405	1	271	1	none	0.5	NaN	red	1	left	left	GLO	none	far	0	intact	none	none	0	0	NaN	NaN	NaN	none	none	NaN	0	0
405	1	272	1	none	0.5	NaN	blue	1	right	right	GLO	none	far	0	intact	none	none	0	0	NaN	NaN	NaN	none	none	NaN	0	0
405	1	273	1	none	0.5	NaN	green	1	down	down	GLO	none	close	0	intact	none	none	0	0	NaN	NaN	NaN	none	none	NaN	0	0
405	1	274	1	none	0.5	NaN	red	0	down	down	GLO	none	close	0	intact	none	none	0	0	NaN	NaN	NaN	none	none	NaN	0	0
405	1	275	1	none	0.5	NaN	red	1	right	right	GLO	none	far	0	intact	none	none	0	0	NaN	NaN	NaN	none	none	NaN	0	0
405	1	276	1	none	0.5	NaN	yellow	1	up	up	GLO	none	close	0	intact	none	none	0	0	NaN	NaN	NaN	none	none	NaN	0	0
405	1	277	1	none	0.5	NaN	yellow	0	left	left	GLO	none	close	0	intact	none	none	0	0	NaN	NaN	NaN	none	none	NaN	0	0
405	2	1	1	self	1.5	1.51637	green	1	down	down	GLO	left	far	1	intact	intact	April_20015_fps_avg_aud.mp4	0	0	0.930699	0	1	right	green	1	0	0
405	2	2	1	self	1.5	1.5171	green	1	down	down	GLO	left	close	1	intact	intact	ea8c6916-8b70-4539-be72-29487b43dc07_fps_avg_aud.mp4	0	0	0.550949	0	1	right	green	1	0	0
405	2	3	1	self	1.5	1.51693	blue	1	down	down	GLO	left	far	1	intact	intact	Nov28_fps_avg_aud.mp4	0	0	0.799951	0	1	down	red	0	0	0
405	2	4	1	self	1.5	1.51681	red	1	up	up	GLO	left	far	1	intact	intact	491f864e-d652-4cca-82ba-d023f3192016_fps_avg_aud.mp4	0	0	0.732556	0	1	down	red	1	0	0
405	2	5	1	self	1.5	1.5159	green	1	down	down	GLO	right	far	1	intact	intact	0fca764b-7147-4307-96dc-cc1807afd905_fps_avg_aud.mp4	0	0	0.683846	0	1	right	green	1	0	0
405	2	6	1	self	1.5	1.51598	green	1	up	up	GLO	right	far	1	intact	intact	Feb14_fps_avg_aud.mp4	0	0	0.666902	0	1	right	green	1	0	0
405	2	7	1	self	1.5	1.51643	yellow	0	left	left	GLO	right	close	1	intact	intact	Dec25_fps_avg_aud.mp4	0	0	0.600416	0	1	left	yellow	1	0	0
405	2	8	1	self	1.5	1.51728	red	0	down	down	GLO	left	close	1	intact	intact	Apr2_fps_avg_aud.mp4	0	0	0.715938	0	1	down	red	1	0	0
405	2	9	1	self	1.5	1.51686	green	0	right	right	GLO	right	close	1	intact	intact	8b38af47-0b70-4682-ac0e-c7a415e91156_fps_avg_aud.mp4	0	0	0.449389	0	1	right	green	1	0	0
405	2	10	1	self	1.5	1.51677	yellow	0	left	left	GLO	right	far	1	intact	intact	b1dabac3-204f-4571-b892-69eb87e805d0_fps_avg_aud.mp4	0	0	0.633748	0	1	left	yellow	1	0	0
405	2	11	1	self	1.5	1.51697	blue	0	up	up	GLO	right	close	1	intact	intact	Dec8_fps_avg_aud.mp4	0	0	0.716671	0	1	up	blue	1	0	0
405	2	12	1	self	1.5	1.5169	yellow	0	left	left	GLO	left	far	1	intact	intact	c4382136-d60d-4fd0-872b-23cb9269b725_fps_avg_aud.mp4	0	0	0.849558	0	1	left	yellow	1	0	0
405	2	13	1	self	1.5	1.51682	green	1	down	down	GLO	right	close	1	intact	intact	37d023e5-2b94-437c-b04e-88100eb5850b_fps_avg_aud.mp4	0	0	1.01676	0	1	right	green	1	0	0
405	2	14	1	self	0.5	0.517036	red	0	down	down	GLO	left	far	1	intact	intact	e066eed1-ff30-4572-8429-cde771b0bc43_fps_avg_aud.mp4	0	0	0.616974	0	1	down	red	1	0	0
405	2	15	1	self	0.5	0.517144	yellow	1	right	right	GLO	right	close	1	intact	intact	September_2016_(2)_fps_avg_aud.mp4	0	0	0.600181	0	1	left	yellow	1	0	0
405	2	16	1	self	0.5	0.517156	yellow	0	left	left	GLO	left	close	1	intact	intact	Mar14_fps_avg_aud.mp4	0	0	0.583561	0	1	left	yellow	1	0	0
405	2	17	1	self	0.5	0.51573	blue	0	up	up	GLO	left	far	1	intact	intact	August_3_2016_fps_avg_aud.mp4	0	0	0.44956	0	1	up	blue	1	0	0
405	2	18	1	self	0.5	0.516821	yellow	0	left	left	GLO	left	close	1	intact	intact	058bdf98-bb64-4851-92f5-ffad71866ee8_fps_avg_aud.mp4	0	0	0.666952	0	1	left	yellow	1	0	0
405	2	19	1	self	0.5	0.515863	yellow	1	down	down	GLO	left	close	1	intact	intact	Aug10_fps_avg_aud.mp4	0	0	0.76006	0	1	left	yellow	1	0	0
405	2	20	1	self	0.5	0.516924	red	0	down	down	GLO	left	close	1	intact	intact	Jan4_fps_avg_aud.mp4	0	0	0.624177	0	1	down	red	1	0	0
405	2	21	1	self	0.5	0.516737	yellow	0	left	left	GLO	left	far	1	intact	intact	705c0056-c7dd-4090-a27e-8956e33cb4b0_fps_avg_aud.mp4	0	0	0.850509	0	1	left	yellow	1	0	0
405	2	22	1	self	0.5	0.515815	yellow	1	right	right	GLO	right	far	1	intact	intact	b151d8a6-cbea-4f58-ab0f-6c21bc545c88_fps_avg_aud.mp4	0	0	0.399207	0	1	left	yellow	1	0	0
405	2	23	1	self	0.5	0.517014	blue	1	right	right	GLO	left	far	1	intact	intact	December_2015_(2)_fps_avg_aud.mp4	0	0	0.781537	0	1	up	blue	1	0	0
405	2	24	1	self	0.5	0.517183	green	1	left	left	GLO	left	far	1	intact	intact	d19912fa-a840-4a29-b318-5be5c947f24f_fps_avg_aud.mp4	0	0	0.579701	0	1	right	green	1	0	0
405	2	25	1	self	0.5	0.517219	red	1	right	right	GLO	right	close	1	intact	intact	July6_fps_avg_aud.mp4	0	0	0.71701	0	1	down	red	1	0	0
405	2	26	1	self	0.5	0.515651	blue	0	up	up	GLO	left	far	1	intact	intact	Oct30_fps_avg_aud.mp4	0	0	0.75086	0	1	up	blue	1	0	0
405	2	27	1	self	0.5	0.517226	red	0	down	down	GLO	right	close	1	intact	intact	cfead01b-2f72-4131-8069-3f2052f352e3_fps_avg_aud.mp4	0	0	0.578132	0	1	down	red	1	0	0
405	2	28	1	self	0.5	0.516967	yellow	1	down	down	GLO	left	close	1	intact	intact	Mar25_fps_avg_aud.mp4	0	0	0.717161	0	1	left	yellow	1	0	0
405	2	29	1	self	0.5	0.516025	green	1	down	down	GLO	right	far	1	intact	intact	5b8d6efa-e1ab-4dc5-b720-51d467e90859_fps_avg_aud.mp4	0	0	0.779327	0	1	right	green	1	0	0
405	2	30	1	self	0.5	0.516264	green	0	right	right	GLO	left	close	1	intact	intact	7ed41b90-fac5-42bc-94a9-a4d7f021d578_fps_avg_aud.mp4	0	0	0.567076	0	1	right	green	1	0	0
405	2	31	1	self	0.5	0.516419	blue	1	down	down	GLO	right	close	1	intact	intact	179d3911-04f4-4680-91c3-2515ed1f3cc4_fps_avg_aud.mp4	0	0	0.831773	0	1	up	blue	1	0	0
405	2	32	1	self	0.5	0.516903	green	1	left	left	GLO	right	close	1	intact	intact	Jun30_fps_avg_aud.mp4	0	0	0.733693	0	1	right	green	1	0	0
405	2	33	1	self	0.5	0.516448	red	1	right	right	GLO	right	close	1	intact	intact	bde7c25a-0ad2-4261-821f-9cae1d4d4033_fps_avg_aud.mp4	0	0	0.533993	0	1	left	yellow	0	0	0
405	2	34	1	self	0.5	NaN	blue	1	left	left	GLO	none	far	1	intact	intact	c3c668bd-3353-4887-b3ff-6d0225f5629c_fps_avg_aud.mp4	0	0	NaN	NaN	NaN	none	none	NaN	0	0
405	2	35	1	self	0.5	NaN	blue	0	up	up	GLO	none	far	1	intact	intact	January_10_2016_fps_avg_aud.mp4	0	0	NaN	NaN	NaN	none	none	NaN	0	0
405	2	36	1	self	0.5	NaN	green	0	right	right	GLO	none	far	1	intact	intact	b23c9ea6-adb6-492c-965f-16af3f7801e9_fps_avg_aud.mp4	0	0	NaN	NaN	NaN	none	none	NaN	0	0
405	2	37	1	self	0.5	NaN	green	1	left	left	GLO	none	close	1	intact	intact	b442d744-edd6-478c-94f1-be50e05465cc_fps_avg_aud.mp4	0	0	NaN	NaN	NaN	none	none	NaN	0	0
405	2	38	1	self	0.5	NaN	yellow	0	left	left	GLO	none	close	1	intact	intact	58fa2b05-06d6-4325-b14b-27b0a9645ea5_fps_avg_aud.mp4	0	0	NaN	NaN	NaN	none	none	NaN	0	0
405	2	39	1	self	0.5	NaN	blue	0	up	up	GLO	none	close	1	intact	intact	jun14_fps_avg_aud.mp4	0	0	NaN	NaN	NaN	none	none	NaN	0	0
405	2	40	1	self	0.5	NaN	green	1	up	up	GLO	none	close	1	intact	intact	af1072d0-b5fe-435b-b10d-545750eb973b_fps_avg_aud.mp4	0	0	NaN	NaN	NaN	none	none	NaN	0	0
405	2	41	1	self	0.5	NaN	green	1	left	left	GLO	none	close	1	intact	intact	d928ad07-fccb-4758-905a-ca2e2f1c06b6_fps_avg_aud.mp4	0	0	NaN	NaN	NaN	none	none	NaN	0	0
405	2	42	1	self	0.5	NaN	blue	1	down	down	GLO	none	far	1	intact	intact	31c3bae2-faf4-4718-b53b-2e88624b3fa5_fps_avg_aud.mp4	0	0	NaN	NaN	NaN	none	none	NaN	0	0
405	2	43	1	self	0.5	NaN	green	1	up	up	GLO	none	close	1	intact	intact	August_2,_2015_fps_avg_aud.mp4	0	0	NaN	NaN	NaN	none	none	NaN	0	0
405	2	44	1	self	0.5	NaN	yellow	1	down	down	GLO	none	close	1	intact	intact	a3a57263-6857-435d-87b3-5c44ae53e10a_fps_avg_aud.mp4	0	0	NaN	NaN	NaN	none	none	NaN	0	0
405	2	45	1	self	0.5	NaN	green	1	left	left	GLO	none	close	1	intact	intact	1bfb8d40-5675-4acc-87b4-a7f11b6242ea_fps_avg_aud.mp4	0	0	NaN	NaN	NaN	none	none	NaN	0	0
405	2	46	1	self	0.5	NaN	green	0	right	right	GLO	none	close	1	intact	intact	b2b0c46b-c908-4752-b5cb-16abe9f2c872_fps_avg_aud.mp4	0	0	NaN	NaN	NaN	none	none	NaN	0	0
405	2	47	1	self	0.5	NaN	yellow	0	left	left	GLO	none	far	1	intact	intact	f0c0b40e-f75d-4798-8deb-2b993faeea9f_fps_avg_aud.mp4	0	0	NaN	NaN	NaN	none	none	NaN	0	0
405	2	48	1	self	0.5	NaN	blue	0	up	up	GLO	none	far	1	intact	intact	Feb19_fps_avg_aud.mp4	0	0	NaN	NaN	NaN	none	none	NaN	0	0
405	2	49	1	self	0.5	NaN	yellow	0	left	left	GLO	none	close	1	intact	intact	4846a2fb-abed-444f-9d11-1cd53c563089_fps_avg_aud.mp4	0	0	NaN	NaN	NaN	none	none	NaN	0	0
405	2	50	1	self	0.5	NaN	green	0	right	right	GLO	none	close	1	intact	intact	may_28_2015_fps_avg_aud.mp4	0	0	NaN	NaN	NaN	none	none	NaN	0	0
405	2	51	1	self	0.5	NaN	blue	1	left	left	GLO	none	close	1	intact	intact	October_14_2016_fps_avg_aud.mp4	0	0	NaN	NaN	NaN	none	none	NaN	0	0
405	2	52	1	self	0.5	NaN	green	0	right	right	GLO	none	far	1	intact	intact	August_2016_(1)_fps_avg_aud.mp4	0	0	NaN	NaN	NaN	none	none	NaN	0	0
405	2	53	1	self	0.5	NaN	blue	1	left	left	GLO	none	far	1	intact	intact	May_18_2016_fps_avg_aud.mp4	0	0	NaN	NaN	NaN	none	none	NaN	0	0
405	2	54	1	self	0.5	NaN	green	1	up	up	GLO	none	far	1	intact	intact	9e99d645-5200-4298-9c0f-4a18ab570a6d_fps_avg_aud.mp4	0	0	NaN	NaN	NaN	none	none	NaN	0	0
405	2	55	1	self	0.5	NaN	green	1	left	left	GLO	none	far	1	intact	intact	86e20a10-46be-4f52-b05b-06877412cf60_fps_avg_aud.mp4	0	0	NaN	NaN	NaN	none	none	NaN	0	0
405	2	56	1	self	0.5	NaN	blue	1	down	down	GLO	none	far	1	intact	intact	november_5_2015_fps_avg_aud.mp4	0	0	NaN	NaN	NaN	none	none	NaN	0	0
405	2	57	1	self	0.5	NaN	blue	1	down	down	GLO	none	close	1	intact	intact	Feb8_fps_avg_aud.mp4	0	0	NaN	NaN	NaN	none	none	NaN	0	0
405	2	58	1	self	0.5	NaN	green	0	right	right	GLO	none	far	1	intact	intact	Oct7_fps_avg_aud.mp4	0	0	NaN	NaN	NaN	none	none	NaN	0	0
405	2	59	1	self	0.5	NaN	green	1	left	left	GLO	none	close	1	intact	intact	54a93c98-7413-4e40-aca3-12bf7a6220c7_fps_avg_aud.mp4	0	0	NaN	NaN	NaN	none	none	NaN	0	0
405	2	60	1	self	0.5	NaN	red	1	left	left	GLO	none	far	1	intact	intact	cabd6947-9e88-4e9a-90fa-985b610f3784_fps_avg_aud.mp4	0	0	NaN	NaN	NaN	none	none	NaN	0	0
405	2	61	1	self	0.5	NaN	yellow	1	up	up	GLO	none	far	1	intact	intact	ec93e301-9c09-4bba-94b5-edac54ba0e07_fps_avg_aud.mp4	0	0	NaN	NaN	NaN	none	none	NaN	0	0
405	2	62	1	self	0.5	NaN	green	1	up	up	GLO	none	far	1	intact	intact	71f3eec1-1d03-4a49-954e-7a809baeb44b_fps_avg_aud.mp4	0	0	NaN	NaN	NaN	none	none	NaN	0	0
405	2	63	1	self	0.5	NaN	blue	1	left	left	GLO	none	far	1	intact	intact	980b240d-9e79-4cca-81da-f6d711752962_fps_avg_aud.mp4	0	0	NaN	NaN	NaN	none	none	NaN	0	0
405	2	64	1	self	0.5	NaN	green	0	right	right	GLO	none	far	1	intact	intact	June7_fps_avg_aud.mp4	0	0	NaN	NaN	NaN	none	none	NaN	0	0
405	2	65	1	self	0.5	NaN	yellow	1	right	right	GLO	none	far	1	intact	intact	05c4b895-8d51-48d4-93fd-4e37519019a0_fps_avg_aud.mp4	0	0	NaN	NaN	NaN	none	none	NaN	0	0
405	2	66	1	self	0.5	NaN	yellow	1	up	up	GLO	none	close	1	intact	intact	33d05c43-ee7c-4877-9419-344c4009c91e_fps_avg_aud.mp4	0	0	NaN	NaN	NaN	none	none	NaN	0	0
405	2	67	1	self	0.5	NaN	yellow	1	down	down	GLO	none	far	1	intact	intact	Jnauary_2016_fps_avg_aud.mp4	0	0	NaN	NaN	NaN	none	none	NaN	0	0
405	2	68	1	self	0.5	NaN	green	0	right	right	GLO	none	far	1	intact	intact	32a37ce7-a199-40eb-b5c5-b974866ffc28_fps_avg_aud.mp4	0	0	NaN	NaN	NaN	none	none	NaN	0	0
405	2	69	1	self	0.5	NaN	green	0	right	right	GLO	none	far	1	intact	intact	1b336470-7a10-4cc7-aee4-3a5e6e6e551e_fps_avg_aud.mp4	0	0	NaN	NaN	NaN	none	none	NaN	0	0
405	2	70	1	self	0.5	NaN	red	1	right	right	GLO	none	far	1	intact	intact	Feb1_fps_avg_aud.mp4	0	0	NaN	NaN	NaN	none	none	NaN	0	0
405	2	71	1	self	0.5	NaN	yellow	0	left	left	GLO	none	close	1	intact	intact	11bc07f6-cbc9-48b9-a240-792e373d6a2a_fps_avg_aud.mp4	0	0	NaN	NaN	NaN	none	none	NaN	0	0
405	2	72	1	self	0.5	NaN	red	0	down	down	GLO	none	close	1	intact	intact	ede4a096-21dc-4ed4-9b28-6df0a7f6fe6b_fps_avg_aud.mp4	0	0	NaN	NaN	NaN	none	none	NaN	0	0
405	2	73	1	self	0.5	NaN	yellow	0	left	left	GLO	none	far	1	intact	intact	Apr7_fps_avg_aud.mp4	0	0	NaN	NaN	NaN	none	none	NaN	0	0
405	2	74	1	self	0.5	NaN	blue	0	up	up	GLO	none	close	1	intact	intact	639855c9-f7b0-4d31-8ca6-c12b36f03058_fps_avg_aud.mp4	0	0	NaN	NaN	NaN	none	none	NaN	0	0
405	2	75	1	self	0.5	NaN	green	0	right	right	GLO	none	close	1	intact	intact	959dfee9-c1d0-4643-9cbd-f9e818b706fa_fps_avg_aud.mp4	0	0	NaN	NaN	NaN	none	none	NaN	0	0
405	2	76	1	self	0.5	NaN	blue	0	up	up	GLO	none	far	1	intact	intact	Aug30_fps_avg_aud.mp4	0	0	NaN	NaN	NaN	none	none	NaN	0	0
405	2	77	1	self	0.5	NaN	green	0	right	right	GLO	none	close	1	intact	intact	8c9efcf8-40ef-4975-90f5-9d2449140a05_fps_avg_aud.mp4	0	0	NaN	NaN	NaN	none	none	NaN	0	0
405	2	78	1	self	0.5	NaN	green	0	right	right	GLO	none	far	1	intact	intact	838aaec1-d86d-4006-a165-4cb3e5f6444b_fps_avg_aud.mp4	0	0	NaN	NaN	NaN	none	none	NaN	0	0
405	2	79	1	self	0.5	NaN	green	1	down	down	GLO	none	far	1	intact	intact	4f243f72-5a08-4b19-aa43-2448c9f0545d_fps_avg_aud.mp4	0	0	NaN	NaN	NaN	none	none	NaN	0	0
405	2	80	1	self	0.5	NaN	yellow	0	left	left	GLO	none	far	1	intact	intact	August1_fps_avg_aud.mp4	0	0	NaN	NaN	NaN	none	none	NaN	0	0
405	2	81	1	self	0.5	NaN	red	1	right	right	GLO	none	far	1	intact	intact	e2244423-2494-4cef-96da-ceaa115b3e8d_fps_avg_aud.mp4	0	0	NaN	NaN	NaN	none	none	NaN	0	0
405	2	82	1	self	0.5	NaN	blue	1	down	down	GLO	none	far	1	intact	intact	Febraury_2016_fps_avg_aud.mp4	0	0	NaN	NaN	NaN	none	none	NaN	0	0
405	2	83	1	self	0.5	NaN	green	0	right	right	GLO	none	close	1	intact	intact	May19_fps_avg_aud.mp4	0	0	NaN	NaN	NaN	none	none	NaN	0	0
405	2	84	1	self	0.5	NaN	yellow	1	right	right	GLO	none	close	1	intact	intact	92171dfa-1474-4f0d-8c37-ab1d226fa154(1)_fps_avg_aud.mp4	0	0	NaN	NaN	NaN	none	none	NaN	0	0
405	2	85	1	self	0.5	NaN	blue	1	left	left	GLO	none	far	1	intact	intact	Dec21_fps_avg_aud.mp4	0	0	NaN	NaN	NaN	none	none	NaN	0	0
405	2	86	1	self	0.5	NaN	yellow	0	left	left	GLO	none	close	1	intact	intact	c79830e0-a78a-415b-b7be-95bf79fe1a3a_fps_avg_aud.mp4	0	0	NaN	NaN	NaN	none	none	NaN	0	0
405	2	87	1	self	0.5	NaN	blue	1	down	down	GLO	none	far	1	intact	intact	May25_fps_avg_aud.mp4	0	0	NaN	NaN	NaN	none	none	NaN	0	0
405	2	88	1	self	0.5	NaN	red	1	left	left	GLO	none	close	1	intact	intact	November_2015_(2)_fps_avg_aud.mp4	0	0	NaN	NaN	NaN	none	none	NaN	0	0
405	2	89	1	self	0.5	NaN	red	0	down	down	GLO	none	close	1	intact	intact	030a135d-605a-42ea-902a-469aeded471a_fps_avg_aud.mp4	0	0	NaN	NaN	NaN	none	none	NaN	0	0
405	2	90	1	self	0.5	NaN	red	1	left	left	GLO	none	far	1	intact	intact	089179b5-68cb-4167-89fa-52f69549f728_fps_avg_aud.mp4	0	0	NaN	NaN	NaN	none	none	NaN	0	0
405	2	91	1	self	0.5	NaN	red	0	down	down	GLO	none	close	1	intact	intact	Jul30_fps_avg_aud.mp4	0	0	NaN	NaN	NaN	none	none	NaN	0	0
405	2	92	1	self	0.5	NaN	blue	1	left	left	GLO	none	far	1	intact	intact	May_2016_(1)_fps_avg_aud.mp4	0	0	NaN	NaN	NaN	none	none	NaN	0	0
405	2	93	1	self	0.5	NaN	yellow	1	down	down	GLO	none	far	1	intact	intact	Mar30_fps_avg_aud.mp4	0	0	NaN	NaN	NaN	none	none	NaN	0	0
405	3	1	1	auto	1.5	1.51723	blue	0	up	up	GLO	right	close	0	intact	none	none	0	0	1.79963	0	1	up	blue	1	0	0
405	3	2	1	auto	1.5	1.51579	green	1	down	down	GLO	left	close	0	intact	none	none	0	0	0.71724	0	1	right	green	1	0	0
405	3	3	1	auto	1.5	1.51627	green	0	right	right	GLO	right	close	1	intact	intact	089179b5-68cb-4167-89fa-52f69549f728_fps_avg_aud.mp4	1	0	1.01109	0	1	right	green	1	0	0
405	3	4	1	auto	1.5	1.51643	yellow	1	down	down	GLO	right	close	1	intact	intact	eccee75e-3f7b-45d7-b4a7-10ac4fce267e_fps_avg_aud.mp4	1	0	0.645053	0	1	down	red	0	0	0
405	3	5	1	auto	1.5	1.51735	blue	1	down	down	GLO	right	close	1	intact	intact	0ee64e11-96b9-4476-a12c-a99a4b58a965_fps_avg_aud.mp4	1	22	1.19183	0.10808	1	down	red	0	0	0
405	3	6	1	auto	1.5	1.51712	green	0	right	right	GLO	left	close	1	intact	intact	f8f9d4f8-9aad-49b0-8b1c-ddf47286d601_fps_avg_aud.mp4	1	0	0.68637	0	1	right	green	1	0	0
405	3	7	1	auto	1.5	1.51686	green	1	up	up	GLO	right	close	0	intact	none	none	0	0	0.633433	0	1	right	green	1	0	0
405	3	8	1	auto	1.5	1.51728	blue	1	right	right	GLO	left	close	1	intact	intact	May15_fps_avg_aud.mp4	1	0	0.724402	0	1	up	blue	1	0	0
405	3	9	1	auto	1.5	1.51726	green	0	right	right	GLO	left	far	0	intact	none	none	0	0	0.549532	0	1	right	green	1	0	0
405	3	10	1	auto	1.5	1.51588	blue	0	up	up	GLO	right	close	1	intact	intact	Apr15_fps_avg_aud.mp4	1	77	1.03439	0.31486	1	up	blue	1	0	0
405	3	11	1	auto	1.5	1.51601	blue	0	up	up	GLO	left	close	1	intact	intact	November_2015_(2)_fps_avg_aud.mp4	1	256	1.53883	0.991303	1	up	blue	1	0	0
405	3	12	1	auto	0.5	0.517548	yellow	0	left	left	GLO	left	close	1	intact	intact	05a4f0ad-5d14-4bd5-8c2b-7db284b369ce_fps_avg_aud.mp4	1	69	1.17327	0.315433	2	left	yellow	1	0	0
405	3	13	1	auto	0.5	0.516013	green	1	up	up	GLO	right	close	0	intact	none	none	0	0	0.634241	0	1	right	green	1	0	0
405	3	14	1	auto	0.5	0.517104	red	1	left	left	GLO	right	far	1	intact	intact	e3992607-d25b-430c-bd18-12cb4a6d1b28_fps_avg_aud.mp4	1	0	0.933935	0	1	down	red	1	0	0
405	3	15	1	auto	0.5	0.516295	green	0	right	right	GLO	left	far	1	intact	intact	July_2015_fps_avg_aud.mp4	1	0	1.21806	0	1	right	green	1	0	0
405	3	16	1	auto	0.5	0.516952	green	0	right	right	GLO	left	close	1	intact	intact	Feb11_fps_avg_aud.mp4	1	0	0.514466	0	1	right	green	1	0	0
405	3	17	1	auto	0.5	0.517074	blue	0	up	up	GLO	left	far	0	intact	none	none	0	0	1.10047	0	1	up	blue	1	0	0
405	3	18	1	auto	0.5	0.51693	red	0	down	down	GLO	right	far	0	intact	none	none	0	0	0.699844	0	1	down	red	1	0	0
405	3	19	1	auto	0.5	0.515952	blue	0	up	up	GLO	right	far	0	intact	none	none	0	0	0.561723	0	1	up	blue	1	0	0
405	3	20	1	auto	0.5	0.51699	yellow	1	right	right	GLO	right	far	0	intact	none	none	0	0	0.733264	0	1	left	yellow	1	0	0
405	3	21	1	auto	0.5	0.516994	red	1	up	up	GLO	right	far	1	intact	intact	8d515f52-784f-4547-b4bd-dfedabc9c31a_fps_avg_aud.mp4	1	0	0.817328	0	1	down	red	1	0	0
405	3	22	1	auto	0.5	0.515659	yellow	1	right	right	GLO	right	far	0	intact	none	none	0	0	0.884135	0	1	left	yellow	1	0	0
405	3	23	1	auto	0.5	0.516788	blue	1	down	down	GLO	left	far	1	intact	intact	Jun30_fps_avg_aud.mp4	1	0	0.749241	0	1	down	red	0	0	0
405	3	24	1	auto	0.5	0.517013	blue	1	right	right	GLO	left	close	1	intact	intact	Jan4_fps_avg_aud.mp4	1	0	0.638532	0	1	up	blue	1	0	0
405	3	25	1	auto	0.5	0.515906	red	1	left	left	GLO	right	far	1	intact	intact	Jan8_fps_avg_aud.mp4	1	0	0.78422	0	1	down	red	1	0	0
405	3	26	1	auto	0.5	0.515934	yellow	0	left	left	GLO	left	close	1	intact	intact	bd6f74c6-a8d8-4bf6-bf1e-d008c6733318_fps_avg_aud.mp4	1	0	0.656463	0	1	left	yellow	1	0	0
405	3	27	1	auto	0.5	0.516046	green	1	down	down	GLO	right	close	1	intact	intact	b2f11719-a2c9-405c-93a2-abd13a835201_fps_avg_aud.mp4	1	0	0.677928	0	1	right	green	1	0	0
405	3	28	1	auto	0.5	0.516152	blue	1	left	left	GLO	left	close	0	intact	none	none	0	0	0.607995	0	1	up	blue	1	0	0
405	3	29	1	auto	0.5	0.516971	red	1	right	right	GLO	right	close	1	intact	intact	July2_fps_avg_aud.mp4	1	0	0.677089	0	1	down	red	1	0	0
405	3	30	1	auto	0.5	0.515982	yellow	0	left	left	GLO	left	far	1	intact	intact	Jnauary_2016_fps_avg_aud.mp4	1	0	1.58372	0	1	right	green	0	0	0
405	3	31	1	auto	0.5	NaN	yellow	1	up	up	GLO	none	close	1	intact	intact	ac670a32-9758-4aa8-b876-775cfe4f2e47_fps_avg_aud.mp4	0	0	NaN	NaN	NaN	none	none	NaN	0	0
405	3	32	1	auto	0.5	NaN	blue	1	right	right	GLO	none	close	1	intact	intact	Dec30_fps_avg_aud.mp4	0	0	NaN	NaN	NaN	none	none	NaN	0	0
405	3	33	1	auto	0.5	NaN	red	0	down	down	GLO	none	far	1	intact	intact	Feb27_fps_avg_aud.mp4	0	0	NaN	NaN	NaN	none	none	NaN	0	0
405	3	34	1	auto	0.5	NaN	yellow	0	left	left	GLO	none	close	1	intact	intact	July27_fps_avg_aud.mp4	0	0	NaN	NaN	NaN	none	none	NaN	0	0
405	3	35	1	auto	0.5	NaN	yellow	1	down	down	GLO	none	close	1	intact	intact	ea69ea96-da66-4080-96c0-6671ca9fd051_fps_avg_aud.mp4	0	0	NaN	NaN	NaN	none	none	NaN	0	0
405	3	36	1	auto	0.5	NaN	green	0	right	right	GLO	none	far	0	intact	none	none	0	0	NaN	NaN	NaN	none	none	NaN	0	0
405	3	37	1	auto	0.5	NaN	blue	0	up	up	GLO	none	far	1	intact	intact	ac2b9dfa-7a4b-40ef-9499-c883a9127ad7_fps_avg_aud.mp4	0	0	NaN	NaN	NaN	none	none	NaN	0	0
405	3	38	1	auto	0.5	NaN	green	1	left	left	GLO	none	far	0	intact	none	none	0	0	NaN	NaN	NaN	none	none	NaN	0	0
405	3	39	1	auto	0.5	NaN	green	0	right	right	GLO	none	far	1	intact	intact	16fe28b7-019b-49e7-9b4b-6b9fba85fe3d_fps_avg_aud.mp4	0	0	NaN	NaN	NaN	none	none	NaN	0	0
405	3	40	1	auto	0.5	NaN	green	0	right	right	GLO	none	far	0	intact	none	none	0	0	NaN	NaN	NaN	none	none	NaN	0	0
405	3	41	1	auto	0.5	NaN	blue	0	up	up	GLO	none	close	1	intact	intact	838aaec1-d86d-4006-a165-4cb3e5f6444b_fps_avg_aud.mp4	0	0	NaN	NaN	NaN	none	none	NaN	0	0
405	3	42	1	auto	0.5	NaN	yellow	1	up	up	GLO	none	close	0	intact	none	none	0	0	NaN	NaN	NaN	none	none	NaN	0	0
405	3	43	1	auto	0.5	NaN	green	0	right	right	GLO	none	close	1	intact	intact	Apr1_fps_avg_aud.mp4	0	0	NaN	NaN	NaN	none	none	NaN	0	0
405	3	44	1	auto	0.5	NaN	blue	1	right	right	GLO	none	far	1	intact	intact	8c9efcf8-40ef-4975-90f5-9d2449140a05_fps_avg_aud.mp4	0	0	NaN	NaN	NaN	none	none	NaN	0	0
405	3	45	1	auto	0.5	NaN	red	1	right	right	GLO	none	close	1	intact	intact	Feb14_fps_avg_aud.mp4	0	0	NaN	NaN	NaN	none	none	NaN	0	0
405	3	46	1	auto	0.5	NaN	blue	1	down	down	GLO	none	far	0	intact	none	none	0	0	NaN	NaN	NaN	none	none	NaN	0	0
405	3	47	1	auto	0.5	NaN	red	0	down	down	GLO	none	far	1	intact	intact	02831e99-5ac8-4fc5-9e76-9a04224fb33e_fps_avg_aud.mp4	0	0	NaN	NaN	NaN	none	none	NaN	0	0
405	3	48	1	auto	0.5	NaN	blue	1	right	right	GLO	none	far	1	intact	intact	fd4a95d6-f171-4c0b-8de2-e9ca909c9eff_fps_avg_aud.mp4	0	0	NaN	NaN	NaN	none	none	NaN	0	0
405	3	49	1	auto	0.5	NaN	blue	0	up	up	GLO	none	close	0	intact	none	none	0	0	NaN	NaN	NaN	none	none	NaN	0	0
405	3	50	1	auto	0.5	NaN	yellow	0	left	left	GLO	none	far	1	intact	intact	a444c8a7-2f60-4193-8052-530d5b35ed4c_fps_avg_aud.mp4	0	0	NaN	NaN	NaN	none	none	NaN	0	0
405	3	51	1	auto	0.5	NaN	red	1	left	left	GLO	none	far	0	intact	none	none	0	0	NaN	NaN	NaN	none	none	NaN	0	0
405	3	52	1	auto	0.5	NaN	yellow	0	left	left	GLO	none	close	1	intact	intact	Nov11_fps_avg_aud.mp4	0	0	NaN	NaN	NaN	none	none	NaN	0	0
405	3	53	1	auto	0.5	NaN	blue	1	down	down	GLO	none	close	1	intact	intact	91a36f37-93be-4754-9ddb-f173f29574e1_fps_avg_aud.mp4	0	0	NaN	NaN	NaN	none	none	NaN	0	0
405	3	54	1	auto	0.5	NaN	yellow	0	left	left	GLO	none	far	1	intact	intact	af8a1933-c829-43c1-8393-4abd55081a1d_fps_avg_aud.mp4	0	0	NaN	NaN	NaN	none	none	NaN	0	0
405	3	55	1	auto	0.5	NaN	red	1	left	left	GLO	none	close	1	intact	intact	61be81ef-2338-498f-a09a-fd23aea0f3ec_fps_avg_aud.mp4	0	0	NaN	NaN	NaN	none	none	NaN	0	0
405	3	56	1	auto	0.5	NaN	blue	1	left	left	GLO	none	close	1	intact	intact	e066eed1-ff30-4572-8429-cde771b0bc43_fps_avg_aud.mp4	0	0	NaN	NaN	NaN	none	none	NaN	0	0
405	3	57	1	auto	0.5	NaN	green	1	left	left	GLO	none	far	1	intact	intact	Apr30_fps_avg_aud.mp4	0	0	NaN	NaN	NaN	none	none	NaN	0	0
405	3	58	1	auto	0.5	NaN	green	0	right	right	GLO	none	far	1	intact	intact	1b336470-7a10-4cc7-aee4-3a5e6e6e551e_fps_avg_aud.mp4	0	0	NaN	NaN	NaN	none	none	NaN	0	0
405	3	59	1	auto	0.5	NaN	red	0	down	down	GLO	none	far	1	intact	intact	Dec27_fps_avg_aud.mp4	0	0	NaN	NaN	NaN	none	none	NaN	0	0
405	3	60	1	auto	0.5	NaN	blue	0	up	up	GLO	none	far	1	intact	intact	Jan20_fps_avg_aud.mp4	0	0	NaN	NaN	NaN	none	none	NaN	0	0
405	3	61	1	auto	0.5	NaN	yellow	1	up	up	GLO	none	far	1	intact	intact	f001cded-b985-4905-a6ac-c1793ff8fab2_fps_avg_aud.mp4	0	0	NaN	NaN	NaN	none	none	NaN	0	0
405	3	62	1	auto	0.5	NaN	yellow	0	left	left	GLO	none	close	1	intact	intact	f83c406a-8912-4d12-a992-cd039ac123db_fps_avg_aud.mp4	0	0	NaN	NaN	NaN	none	none	NaN	0	0
405	3	63	1	auto	0.5	NaN	red	1	up	up	GLO	none	close	1	intact	intact	Aug12_fps_avg_aud.mp4	0	0	NaN	NaN	NaN	none	none	NaN	0	0
405	3	64	1	auto	0.5	NaN	green	1	down	down	GLO	none	close	0	intact	none	none	0	0	NaN	NaN	NaN	none	none	NaN	0	0
405	3	65	1	auto	0.5	NaN	yellow	1	up	up	GLO	none	close	1	intact	intact	fc42fffc-beb2-426f-85f8-fe9f11671486_fps_avg_aud.mp4	0	0	NaN	NaN	NaN	none	none	NaN	0	0
405	3	66	1	auto	0.5	NaN	yellow	1	up	up	GLO	none	close	0	intact	none	none	0	0	NaN	NaN	NaN	none	none	NaN	0	0
405	3	67	1	auto	0.5	NaN	red	1	right	right	GLO	none	far	1	intact	intact	32b66b3c-9f3a-4856-9278-87ca4048d48e_fps_avg_aud.mp4	0	0	NaN	NaN	NaN	none	none	NaN	0	0
405	3	68	1	auto	0.5	NaN	red	0	down	down	GLO	none	far	1	intact	intact	ed9842b1-ccb5-4e6e-8fcb-d81eb3d6f297_fps_avg_aud.mp4	0	0	NaN	NaN	NaN	none	none	NaN	0	0
405	3	69	1	auto	0.5	NaN	yellow	0	left	left	GLO	none	far	1	intact	intact	September_14_2016_fps_avg_aud.mp4	0	0	NaN	NaN	NaN	none	none	NaN	0	0
405	3	70	1	auto	0.5	NaN	green	0	right	right	GLO	none	close	1	intact	intact	202647f1-9373-4eb4-ac9a-27bf605f227d_fps_avg_aud.mp4	0	0	NaN	NaN	NaN	none	none	NaN	0	0
405	3	71	1	auto	0.5	NaN	red	0	down	down	GLO	none	far	1	intact	intact	38a0ff6f-f976-4235-af7e-49859d376c46_fps_avg_aud.mp4	0	0	NaN	NaN	NaN	none	none	NaN	0	0
405	3	72	1	auto	0.5	NaN	green	1	up	up	GLO	none	far	1	intact	intact	f252571c-093b-4ade-9187-cd198d1e3eb0_fps_avg_aud.mp4	0	0	NaN	NaN	NaN	none	none	NaN	0	0
405	3	73	1	auto	0.5	NaN	green	0	right	right	GLO	none	far	0	intact	none	none	0	0	NaN	NaN	NaN	none	none	NaN	0	0
405	3	74	1	auto	0.5	NaN	green	1	left	left	GLO	none	far	1	intact	intact	beb38bd6-976e-468f-9f23-b6b41f12ce11_fps_avg_aud.mp4	0	0	NaN	NaN	NaN	none	none	NaN	0	0
405	3	75	1	auto	0.5	NaN	blue	0	up	up	GLO	none	close	0	intact	none	none	0	0	NaN	NaN	NaN	none	none	NaN	0	0
405	3	76	1	auto	0.5	NaN	yellow	0	left	left	GLO	none	far	0	intact	none	none	0	0	NaN	NaN	NaN	none	none	NaN	0	0
405	3	77	1	auto	0.5	NaN	red	0	down	down	GLO	none	close	1	intact	intact	July31_fps_avg_aud.mp4	0	0	NaN	NaN	NaN	none	none	NaN	0	0
405	3	78	1	auto	0.5	NaN	green	0	right	right	GLO	none	far	0	intact	none	none	0	0	NaN	NaN	NaN	none	none	NaN	0	0
405	3	79	1	auto	0.5	NaN	blue	0	up	up	GLO	none	close	1	intact	intact	Jan19_fps_avg_aud.mp4	0	0	NaN	NaN	NaN	none	none	NaN	0	0
405	3	80	1	auto	0.5	NaN	blue	1	left	left	GLO	none	far	1	intact	intact	bbadcc83-10bb-4a2d-a28a-1d6b44f33770_fps_avg_aud.mp4	0	0	NaN	NaN	NaN	none	none	NaN	0	0
405	3	81	1	auto	0.5	NaN	yellow	1	right	right	GLO	none	close	1	intact	intact	June_17_2015_fps_avg_aud.mp4	0	0	NaN	NaN	NaN	none	none	NaN	0	0
405	3	82	1	auto	0.5	NaN	green	1	left	left	GLO	none	close	0	intact	none	none	0	0	NaN	NaN	NaN	none	none	NaN	0	0
405	3	83	1	auto	0.5	NaN	yellow	0	left	left	GLO	none	close	0	intact	none	none	0	0	NaN	NaN	NaN	none	none	NaN	0	0
405	3	84	1	auto	0.5	NaN	red	1	up	up	GLO	none	far	1	intact	intact	0ab2bdff-924c-46d2-b610-671d6f4f673e_fps_avg_aud.mp4	0	0	NaN	NaN	NaN	none	none	NaN	0	0
405	3	85	1	auto	0.5	NaN	green	0	right	right	GLO	none	far	0	intact	none	none	0	0	NaN	NaN	NaN	none	none	NaN	0	0
405	3	86	1	auto	0.5	NaN	yellow	0	left	left	GLO	none	close	0	intact	none	none	0	0	NaN	NaN	NaN	none	none	NaN	0	0
405	3	87	1	auto	0.5	NaN	blue	0	up	up	GLO	none	close	1	intact	intact	14b4b9c3-9408-4ec8-bd84-8e92a4405645_fps_avg_aud.mp4	0	0	NaN	NaN	NaN	none	none	NaN	0	0
405	3	88	1	auto	0.5	NaN	yellow	1	up	up	GLO	none	far	0	intact	none	none	0	0	NaN	NaN	NaN	none	none	NaN	0	0
405	3	89	1	auto	0.5	NaN	yellow	1	right	right	GLO	none	close	1	intact	intact	de0e4ce1-0f87-4077-b69c-578049fe4691_fps_avg_aud.mp4	0	0	NaN	NaN	NaN	none	none	NaN	0	0
405	3	90	1	auto	0.5	NaN	yellow	1	up	up	GLO	none	close	0	intact	none	none	0	0	NaN	NaN	NaN	none	none	NaN	0	0
405	3	91	1	auto	0.5	NaN	green	0	right	right	GLO	none	far	1	intact	intact	may_2015_fps_avg_aud.mp4	0	0	NaN	NaN	NaN	none	none	NaN	0	0
405	3	92	1	auto	0.5	NaN	blue	0	up	up	GLO	none	far	0	intact	none	none	0	0	NaN	NaN	NaN	none	none	NaN	0	0
405	3	93	1	auto	0.5	NaN	green	0	right	right	GLO	none	far	0	intact	none	none	0	0	NaN	NaN	NaN	none	none	NaN	0	0
405	4	1	0	self	1.5	1.51678	blue	1	right	right	GLO	left	close	1	intact	intact	May7_fps_avg_aud.mp4	0	0	0.766864	0	1	up	blue	1	0.001	low
405	4	2	0	self	1.5	1.51581	red	1	right	right	GLO	left	close	1	intact	intact	8c9efcf8-40ef-4975-90f5-9d2449140a05_fps_avg_aud.mp4	0	0	0.550152	0	1	down	red	1	0.002	low
405	4	3	0	self	1.5	1.51644	green	0	right	right	GLO	left	far	1	intact	intact	520ef496-2bf3-4f3e-8a54-00e0428b126c_fps_avg_aud.mp4	0	0	0.449685	0	1	right	green	1	0.003	low
405	4	4	0	self	1.5	1.51592	green	1	up	up	GLO	right	close	1	intact	intact	Mar14_fps_avg_aud.mp4	0	0	0.617123	0	1	right	green	1	0.004	low
405	4	5	0	self	1.5	1.51731	green	0	right	right	GLO	left	close	1	intact	intact	Aug10_fps_avg_aud.mp4	0	0	0.515333	0	1	right	green	1	0.005	low
405	4	6	0	self	1.5	1.51712	yellow	0	left	left	GLO	right	far	1	intact	intact	September_2016_(2)_fps_avg_aud.mp4	0	0	0.483187	0	1	left	yellow	1	0.006	low
405	4	7	0	self	1.5	1.51772	yellow	1	down	down	GLO	left	close	1	intact	intact	11bc07f6-cbc9-48b9-a240-792e373d6a2a_fps_avg_aud.mp4	0	0	0.683851	0	1	left	yellow	1	0.007	low
405	4	8	0	self	1.5	1.51582	blue	1	left	left	GLO	right	far	1	intact	intact	Feb17_fps_avg_aud.mp4	0	0	0.634286	0	1	up	blue	1	0.008	low
405	4	9	0	self	1.5	1.51669	red	1	left	left	GLO	left	far	1	intact	intact	Nov7_fps_avg_aud.mp4	0	0	0.383424	0	1	down	red	1	0.009	low
405	4	10	0	self	1.5	1.51669	blue	0	up	up	GLO	left	close	1	intact	intact	a9843691-e4cb-4c12-aa70-47f2024c5698_fps_avg_aud.mp4	0	0	0.667229	0	1	up	blue	1	0.01	low
405	4	11	0	self	1.5	1.51688	red	0	down	down	GLO	left	far	1	intact	intact	Dec4_fps_avg_aud.mp4	0	0	0.393538	0	1	down	red	1	0.011	low
405	4	12	0	self	1.5	1.516	red	0	down	down	GLO	left	close	1	intact	intact	4f243f72-5a08-4b19-aa43-2448c9f0545d_fps_avg_aud.mp4	0	0	0.590913	0	1	down	red	1	0.012	low
405	4	13	0	self	1.5	1.5169	blue	0	up	up	GLO	left	far	1	intact	intact	Dec12_fps_avg_aud.mp4	0	0	0.43382	0	1	up	blue	1	0.013	low
405	4	14	0	self	1.5	1.51571	green	1	up	up	GLO	right	far	1	intact	intact	Dec13_fps_avg_aud.mp4	0	0	0.663504	0	1	right	green	1	0.014	low
405	4	15	0	self	1.5	1.51663	red	0	down	down	GLO	left	far	1	intact	intact	Apr1_fps_avg_aud.mp4	0	0	0.582552	0	1	down	red	1	0.015	low
405	4	16	0	self	1.5	1.51565	blue	0	up	up	GLO	left	close	1	intact	intact	ac9d3ec9-e996-4c12-9cee-27057f644981_fps_avg_aud.mp4	0	0	0.595393	0	1	up	blue	1	0.016	low
405	4	17	0	self	1.5	1.51592	green	0	right	right	GLO	right	close	1	intact	intact	Dec21_fps_avg_aud.mp4	0	0	0.716851	0	1	right	green	1	0.017	low
405	4	18	0	self	1.5	1.51572	green	1	up	up	GLO	left	close	1	intact	intact	226bfd42-14d0-45a1-82ba-233f4ddec70a_fps_avg_aud.mp4	0	0	0.545294	0	1	right	green	1	0.018	low
405	4	19	0	self	1.5	1.51578	yellow	1	down	down	GLO	left	close	1	intact	intact	0602c0a8-082a-4bca-9f5b-70795017698f_fps_avg_aud.mp4	0	0	0.54948	0	1	left	yellow	1	0.019	low
405	4	20	0	self	1.5	1.516	yellow	1	right	right	GLO	left	close	1	intact	intact	4d681112-07b2-4265-a7e1-d188bc4f8511_fps_avg_aud.mp4	0	0	0.700908	0	1	left	yellow	1	0.02	low
405	4	21	0	self	1.5	1.51588	red	0	down	down	GLO	right	far	1	intact	intact	838aaec1-d86d-4006-a165-4cb3e5f6444b_fps_avg_aud.mp4	0	0	0.618294	0	1	down	red	1	0.021	low
405	4	22	0	self	1.5	1.51702	blue	0	up	up	GLO	right	close	1	intact	intact	6ce71e9b-76db-4300-af8c-23df366c03d0_fps_avg_aud.mp4	0	0	0.366543	0	1	up	blue	1	0.022	low
405	4	23	0	self	1.5	1.5171	yellow	1	down	down	GLO	left	far	1	intact	intact	October_8_2016_fps_avg_aud.mp4	0	0	0.682956	0	1	left	yellow	1	0.023	low
405	4	24	0	self	1.5	1.51716	green	1	left	left	GLO	left	far	1	intact	intact	7c00c850-e528-473f-895e-ee9be83c7963_fps_avg_aud.mp4	0	0	0.517578	0	1	right	green	1	0.024	low
405	4	25	0	self	1.5	1.51694	yellow	1	down	down	GLO	right	far	1	intact	intact	Feb27_fps_avg_aud.mp4	0	0	0.616466	0	1	left	yellow	1	0.025	low
405	4	26	0	self	1.5	1.51609	green	0	right	right	GLO	right	close	1	intact	intact	ac2b9dfa-7a4b-40ef-9499-c883a9127ad7_fps_avg_aud.mp4	0	0	0.567561	0	1	right	green	1	0.026	low
405	4	27	0	self	1.5	1.51611	blue	0	up	up	GLO	left	far	1	intact	intact	October_2015_fps_avg_aud.mp4	0	0	0.976674	0	1	up	blue	1	0.027	low
405	4	28	0	self	1.5	1.51678	red	0	down	down	GLO	right	close	1	intact	intact	b35409aa-6325-4736-bc0d-526af5b26b83_fps_avg_aud.mp4	0	0	0.483551	0	1	down	red	1	0.028	low
405	4	29	0	self	1.5	1.51657	red	1	left	left	GLO	left	far	1	intact	intact	Oct31_fps_avg_aud.mp4	0	0	0.433453	0	1	down	red	1	0.029	low
405	4	30	0	self	1.5	NaN	red	0	down	down	GLO	none	close	1	intact	intact	Jan30_fps_avg_aud.mp4	0	0	NaN	NaN	NaN	none	none	NaN	0.029	low
405	4	31	0	self	1.5	NaN	green	0	right	right	GLO	none	far	1	intact	intact	Dec11_fps_avg_aud.mp4	0	0	NaN	NaN	NaN	none	none	NaN	0.029	low
405	4	32	0	self	1.5	NaN	yellow	0	left	left	GLO	none	far	1	intact	intact	fc42fffc-beb2-426f-85f8-fe9f11671486_fps_avg_aud.mp4	0	0	NaN	NaN	NaN	none	none	NaN	0.029	low
405	4	33	0	self	1.5	NaN	red	0	down	down	GLO	none	close	1	intact	intact	f252571c-093b-4ade-9187-cd198d1e3eb0_fps_avg_aud.mp4	0	0	NaN	NaN	NaN	none	none	NaN	0.029	low
405	4	34	0	self	1.5	NaN	blue	1	down	down	GLO	none	far	1	intact	intact	Dec31_fps_avg_aud.mp4	0	0	NaN	NaN	NaN	none	none	NaN	0.029	low
405	4	35	0	self	1.5	NaN	yellow	0	left	left	GLO	none	far	1	intact	intact	745865b0-d7b3-440f-840d-03f3a3ef51b1_fps_avg_aud.mp4	0	0	NaN	NaN	NaN	none	none	NaN	0.029	low
405	4	36	0	self	1.5	NaN	yellow	1	right	right	GLO	none	far	1	intact	intact	Sep27_fps_avg_aud.mp4	0	0	NaN	NaN	NaN	none	none	NaN	0.029	low
405	4	37	0	self	1.5	NaN	red	0	down	down	GLO	none	close	1	intact	intact	ea6675d4-3684-48c3-9bd0-c32d38c48c9e_fps_avg_aud.mp4	0	0	NaN	NaN	NaN	none	none	NaN	0.029	low
405	5	1	0	auto	1.5	1.5158	green	0	right	right	GLO	left	far	1	intact	intact	Jun1_fps_avg_aud.mp4	1	0	0.803437	0	1	right	green	1	0.03	low
405	5	2	0	auto	1.5	1.5168	red	1	left	left	GLO	left	close	1	intact	intact	d0082a79-d6fc-4855-80df-f443f4a14e37_fps_avg_aud.mp4	1	0	0.587536	0	1	down	red	1	0.031	low
405	5	3	0	auto	1.5	1.51604	blue	1	right	right	GLO	right	far	0	intact	none	none	0	0	0.434657	0	1	up	blue	1	0.032	low
405	5	4	0	auto	1.5	1.51686	red	0	down	down	GLO	left	close	0	intact	none	none	0	0	0.567259	0	1	down	red	1	0.033	low
405	5	5	0	auto	1.5	1.51697	green	1	up	up	GLO	right	close	1	intact	intact	f1caa1d5-1230-4918-b000-58763883bff3_fps_avg_aud.mp4	1	0	0.715466	0	1	right	green	1	0.034	low
405	5	6	0	auto	1.5	1.51711	blue	0	up	up	GLO	right	close	0	intact	none	none	0	0	0.899856	0	1	up	blue	1	0.035	low
405	5	7	0	auto	1.5	1.51709	yellow	0	left	left	GLO	left	close	1	intact	intact	May11_fps_avg_aud.mp4	1	0	0.572998	0	1	left	yellow	1	0.036	low
405	5	8	0	auto	1.5	1.51727	green	1	left	left	GLO	right	far	1	intact	intact	a525e336-0ec0-4048-92cf-487e44952f5c_fps_avg_aud.mp4	1	0	0.666175	0	1	right	green	1	0.037	low
405	5	9	0	auto	1.5	1.51656	yellow	0	left	left	GLO	left	close	0	intact	none	none	0	0	0.650294	0	1	left	yellow	1	0.038	low
405	5	10	0	auto	1.5	1.51714	red	1	up	up	GLO	left	far	0	intact	none	none	0	0	0.599981	0	1	down	red	1	0.039	low
405	5	11	0	auto	1.5	1.51687	blue	1	left	left	GLO	right	far	0	intact	none	none	0	0	0.534329	0	1	up	blue	1	0.04	low
405	5	12	0	auto	1.5	1.51558	blue	1	right	right	GLO	left	close	0	intact	none	none	0	0	0.790663	0	1	up	blue	1	0.041	low
405	5	13	0	auto	1.5	1.51689	yellow	1	down	down	GLO	right	far	0	intact	none	none	0	0	0.916036	0	1	left	yellow	1	0.042	low
405	5	14	0	auto	1.5	1.51683	blue	1	left	left	GLO	right	close	1	intact	intact	79665cdb-61c8-40fb-9ffc-0682e57caf2f_fps_avg_aud.mp4	1	0	0.775605	0	1	down	red	0	0.041	low
405	5	15	0	auto	1.5	1.51737	yellow	1	up	up	GLO	left	close	0	intact	none	none	0	0	0.740118	0	1	left	yellow	1	0.042	low
405	5	16	0	auto	1.5	1.51699	yellow	1	up	up	GLO	left	close	0	intact	none	none	0	0	0.766937	0	1	left	yellow	1	0.043	low
405	5	17	0	auto	1.5	1.51722	blue	1	left	left	GLO	left	close	0	intact	none	none	0	0	1.21714	0	1	up	blue	1	0.044	low
405	5	18	0	auto	1.5	1.51575	red	0	down	down	GLO	right	close	1	intact	intact	73d0e54a-1b4c-4f00-a562-b71360349bdf_fps_avg_aud.mp4	1	0	0.530094	0	1	down	red	1	0.045	low
405	5	19	0	auto	1.5	1.51711	blue	1	left	left	GLO	right	far	1	intact	intact	99e5912a-fa6d-43dc-a1df-f887e6ef8a00_fps_avg_aud.mp4	1	0	0.966633	0	1	up	blue	1	0.046	low
405	5	20	0	auto	1.5	1.51699	green	0	right	right	GLO	right	close	1	intact	intact	e5e9435d-267e-4f33-bd02-80f8eeedf363_fps_avg_aud.mp4	1	0	0.768026	0	1	right	green	1	0.047	low
405	5	21	0	auto	1.5	1.51615	green	0	right	right	GLO	left	far	1	intact	intact	960000ea-ab44-4258-8824-51f8fdf7a806_fps_avg_aud.mp4	1	0	0.513753	0	1	right	green	1	0.048	low
405	5	22	0	auto	1.5	1.5171	yellow	0	left	left	GLO	right	far	0	intact	none	none	0	0	0.534978	0	1	left	yellow	1	0.049	low
405	5	23	0	auto	1.5	1.517	green	1	down	down	GLO	right	far	0	intact	none	none	0	0	0.649059	0	1	right	green	1	0.05	low
405	5	24	0	auto	1.5	1.51655	yellow	1	up	up	GLO	left	close	1	intact	intact	b55ab065-b20b-4b90-b1fd-ca55d667b668_fps_avg_aud.mp4	1	9	0.582401	0.0425034	1	left	yellow	1	0.051	low
405	5	25	0	auto	1.5	1.51575	yellow	1	down	down	GLO	left	far	1	intact	intact	61be81ef-2338-498f-a09a-fd23aea0f3ec_fps_avg_aud.mp4	1	0	0.757625	0	1	left	yellow	1	0.052	low
405	5	26	0	auto	1.5	1.51689	red	1	left	left	GLO	left	far	1	intact	intact	17cc3183-9fa6-42da-8814-3bcbf562eceb_fps_avg_aud.mp4	1	0	0.848986	0	1	down	red	1	0.053	low
405	5	27	0	auto	1.5	1.51734	green	0	right	right	GLO	right	close	1	intact	intact	Feb28_fps_avg_aud.mp4	1	0	0.641897	0	1	right	green	1	0.054	low
405	5	28	0	auto	1.5	NaN	yellow	1	right	right	GLO	none	far	1	intact	intact	Nov10_fps_avg_aud.mp4	0	0	NaN	NaN	NaN	none	none	NaN	0.054	low
405	5	29	0	auto	1.5	NaN	yellow	0	left	left	GLO	none	close	1	intact	intact	33d05c43-ee7c-4877-9419-344c4009c91e_fps_avg_aud.mp4	0	0	NaN	NaN	NaN	none	none	NaN	0.054	low
405	5	30	0	auto	1.5	NaN	green	1	down	down	GLO	none	close	1	intact	intact	Jan5_fps_avg_aud.mp4	0	0	NaN	NaN	NaN	none	none	NaN	0.054	low
405	5	31	0	auto	1.5	NaN	green	0	right	right	GLO	none	close	1	intact	intact	march_21_2016_fps_avg_aud.mp4	0	0	NaN	NaN	NaN	none	none	NaN	0.054	low
405	5	32	0	auto	1.5	NaN	red	1	up	up	GLO	none	far	1	intact	intact	049f3843-4d05-4200-8b41-7c0b71c68f4c_fps_avg_aud.mp4	0	0	NaN	NaN	NaN	none	none	NaN	0.054	low
405	5	33	0	auto	1.5	NaN	green	1	up	up	GLO	none	far	0	intact	none	none	0	0	NaN	NaN	NaN	none	none	NaN	0.054	low
405	5	34	0	auto	1.5	NaN	red	1	up	up	GLO	none	close	0	intact	none	none	0	0	NaN	NaN	NaN	none	none	NaN	0.054	low
405	5	35	0	auto	1.5	NaN	red	0	down	down	GLO	none	far	0	intact	none	none	0	0	NaN	NaN	NaN	none	none	NaN	0.054	low
405	5	36	0	auto	1.5	NaN	red	1	right	right	GLO	none	close	1	intact	intact	Aug17_fps_avg_aud.mp4	0	0	NaN	NaN	NaN	none	none	NaN	0.054	low
405	5	37	0	auto	1.5	NaN	blue	1	down	down	GLO	none	close	0	intact	none	none	0	0	NaN	NaN	NaN	none	none	NaN	0.054	low
405	6	1	0	self	1.5	1.51699	green	1	up	up	GLO	left	far	1	intact	intact	ed9842b1-ccb5-4e6e-8fcb-d81eb3d6f297_fps_avg_aud.mp4	0	0	0.732838	0	1	right	green	1	0.064	high
405	6	2	0	self	1.5	1.51708	yellow	0	left	left	GLO	left	far	1	intact	intact	Sep7_fps_avg_aud.mp4	0	0	0.599086	0	1	left	yellow	1	0.074	high
405	6	3	0	self	1.5	1.51697	green	1	left	left	GLO	left	far	1	intact	intact	3787d5d7-bc65-4720-b93c-344c8ca85f75_fps_avg_aud.mp4	0	0	0.684087	0	1	right	green	1	0.084	high
405	6	4	0	self	1.5	1.51601	blue	1	left	left	GLO	left	close	1	intact	intact	november_5_2015_fps_avg_aud.mp4	0	0	0.574761	0	1	up	blue	1	0.094	high
405	6	5	0	self	1.5	1.51729	red	1	left	left	GLO	left	far	1	intact	intact	667c6586-78bc-49b6-b207-12bdfa8fdd9e_fps_avg_aud.mp4	0	0	0.583114	0	1	down	red	1	0.104	high
405	6	6	0	self	1.5	1.51604	red	0	down	down	GLO	right	close	1	intact	intact	75c41469-2e99-4ed0-b25f-04259686f11b_fps_avg_aud.mp4	0	0	0.499773	0	1	down	red	1	0.114	high
405	6	7	0	self	1.5	1.51701	blue	0	up	up	GLO	left	far	1	intact	intact	Jan20_fps_avg_aud.mp4	0	0	0.467333	0	1	up	blue	1	0.124	high
405	6	8	0	self	1.5	1.51708	red	0	down	down	GLO	right	close	1	intact	intact	May28_fps_avg_aud.mp4	0	0	0.583437	0	1	down	red	1	0.134	high
405	6	9	0	self	1.5	1.51711	yellow	1	up	up	GLO	left	far	1	intact	intact	98afb848-1bd2-46a6-89c7-32d60d6d1855_fps_avg_aud.mp4	0	0	0.71108	0	1	left	yellow	1	0.144	high
405	6	10	0	self	1.5	1.51687	green	1	left	left	GLO	right	far	1	intact	intact	ae455cc0-190e-4a3d-907c-79f241176900_fps_avg_aud.mp4	0	0	0.567251	0	1	right	green	1	0.154	high
405	6	11	0	self	1.5	1.51588	green	1	up	up	GLO	right	close	1	intact	intact	f001cded-b985-4905-a6ac-c1793ff8fab2_fps_avg_aud.mp4	0	0	0.651224	0	1	right	green	1	0.164	high
405	6	12	0	self	1.5	1.51693	yellow	0	left	left	GLO	left	close	1	intact	intact	Feb13_fps_avg_aud.mp4	0	0	0.566454	0	1	left	yellow	1	0.174	high
405	6	13	0	self	1.5	1.51594	green	0	right	right	GLO	left	close	1	intact	intact	e9f06abd-24bb-46d2-ac8b-3a473a758d7e_fps_avg_aud.mp4	0	0	0.623773	0	1	right	green	1	0.184	high
405	6	14	0	self	1.5	1.51714	red	0	down	down	GLO	right	close	1	intact	intact	cfde3402-3742-4dda-82a3-7c69c497e0f8_fps_avg_aud.mp4	0	0	0.563765	0	1	down	red	1	0.194	high
405	6	15	0	self	1.5	1.51592	red	1	right	right	GLO	right	far	1	intact	intact	54a93c98-7413-4e40-aca3-12bf7a6220c7_fps_avg_aud.mp4	0	0	0.567222	0	1	down	red	1	0.204	high
405	6	16	0	self	1.5	1.51715	yellow	0	left	left	GLO	left	close	1	intact	intact	Dec4_fps_avg_aud.mp4	0	0	1.04084	0	1	left	yellow	1	0.214	high
405	6	17	0	self	1.5	1.51688	green	0	right	right	GLO	right	far	1	intact	intact	0f23035e-0077-49bd-b516-950aa27b63b5_fps_avg_aud.mp4	0	0	0.799032	0	1	right	green	1	0.224	high
405	6	18	0	self	1.5	1.51701	red	1	left	left	GLO	right	close	1	intact	intact	Feb19_fps_avg_aud.mp4	0	0	1.28138	0	1	down	red	1	0.234	high
405	6	19	0	self	1.5	1.51585	green	0	right	right	GLO	right	close	1	intact	intact	b1ade3a7-f9fd-4229-8a80-df334c184531_fps_avg_aud.mp4	0	0	0.548978	0	1	right	green	1	0.244	high
405	6	20	0	self	1.5	1.51619	yellow	1	right	right	GLO	left	far	1	intact	intact	359d82dd-3d4c-4029-a89b-66422745c056_fps_avg_aud.mp4	0	0	0.751511	0	1	left	yellow	1	0.254	high
405	6	21	0	self	1.5	1.51708	red	0	down	down	GLO	right	close	1	intact	intact	fd318c50-e133-4dc8-918b-b97094aebdf0_fps_avg_aud.mp4	0	0	0.80033	0	1	down	red	1	0.264	high
405	6	22	0	self	1.5	1.51621	blue	1	right	right	GLO	right	far	1	intact	intact	December_2015_fps_avg_aud.mp4	0	0	0.450893	0	1	up	blue	1	0.274	high
405	6	23	0	self	1.5	1.51647	red	0	down	down	GLO	right	close	1	intact	intact	4db3f410-b7dd-4157-a876-374c50f0a479_fps_avg_aud.mp4	0	0	0.597095	0	1	down	red	1	0.284	high
405	6	24	0	self	1.5	1.51732	blue	1	left	left	GLO	right	close	1	intact	intact	15914fca-fb16-47ce-929a-161ca2c1fdf7_fps_avg_aud.mp4	0	0	0.632893	0	1	up	blue	1	0.294	high
405	6	25	0	self	1.5	1.51717	blue	1	right	right	GLO	right	far	1	intact	intact	80bae024-90b7-4369-88be-93c1000385ef_fps_avg_aud.mp4	0	0	0.767141	0	1	up	blue	1	0.304	high
405	6	26	0	self	1.5	1.51672	blue	1	left	left	GLO	left	close	1	intact	intact	942f20a2-a776-400d-9488-0c1647ebd585_fps_avg_aud.mp4	0	0	0.450113	0	1	up	blue	1	0.314	high
405	6	27	0	self	1.5	1.51667	green	1	down	down	GLO	left	far	1	intact	intact	1bfb8d40-5675-4acc-87b4-a7f11b6242ea_fps_avg_aud.mp4	0	0	0.707867	0	1	right	green	1	0.324	high
405	6	28	0	self	1.5	1.516	green	1	left	left	GLO	right	far	1	intact	intact	March25_2016_fps_avg_aud.mp4	0	0	0.484382	0	1	right	green	1	0.334	high
405	6	29	0	self	1.5	NaN	yellow	0	left	left	GLO	none	close	1	intact	intact	e67cff3b-48fd-4045-95c8-a92189606742_fps_avg_aud.mp4	0	0	NaN	NaN	NaN	none	none	NaN	0.334	high
405	6	30	0	self	1.5	NaN	blue	1	left	left	GLO	none	close	1	intact	intact	4d617426-ab8c-4125-9dcf-178529ca54a1_fps_avg_aud.mp4	0	0	NaN	NaN	NaN	none	none	NaN	0.334	high
405	6	31	0	self	1.5	NaN	yellow	0	left	left	GLO	none	far	1	intact	intact	c8d39be1-c442-4655-95ef-034cc2711cda_fps_avg_aud.mp4	0	0	NaN	NaN	NaN	none	none	NaN	0.334	high
405	6	32	0	self	1.5	NaN	green	1	left	left	GLO	none	close	1	intact	intact	January_2016_(3)_fps_avg_aud.mp4	0	0	NaN	NaN	NaN	none	none	NaN	0.334	high
405	6	33	0	self	1.5	NaN	blue	1	down	down	GLO	none	far	1	intact	intact	bd3765b8-eb64-440a-a4a8-b6804686fcae_fps_avg_aud.mp4	0	0	NaN	NaN	NaN	none	none	NaN	0.334	high
405	6	34	0	self	1.5	NaN	green	1	left	left	GLO	none	close	1	intact	intact	1b336470-7a10-4cc7-aee4-3a5e6e6e551e_fps_avg_aud.mp4	0	0	NaN	NaN	NaN	none	none	NaN	0.334	high
405	6	35	0	self	1.5	NaN	red	1	left	left	GLO	none	far	1	intact	intact	53f27130-5392-4410-b48f-90a712697cfb_fps_avg_aud.mp4	0	0	NaN	NaN	NaN	none	none	NaN	0.334	high
405	6	36	0	self	1.5	NaN	green	1	up	up	GLO	none	far	1	intact	intact	d59b9ee2-e1af-4171-a59e-9daefced695e_fps_avg_aud.mp4	0	0	NaN	NaN	NaN	none	none	NaN	0.334	high
405	6	37	0	self	1.5	NaN	green	0	right	right	GLO	none	far	1	intact	intact	b11b47e5-c9ce-4ff0-9f69-98698858b2d8_fps_avg_aud.mp4	0	0	NaN	NaN	NaN	none	none	NaN	0.334	high
405	7	1	0	auto	1.5	1.51707	green	1	left	left	GLO	right	close	1	intact	intact	Jun20_fps_avg_aud.mp4	1	0	0.706166	0	1	right	green	1	0.344	high
405	7	2	0	auto	1.5	1.51698	blue	1	left	left	GLO	right	close	1	intact	intact	b8f7a383-ba3e-49db-977d-18cbd8702864_fps_avg_aud.mp4	1	0	1.12908	0	1	up	blue	1	0.354	high
405	7	3	0	auto	1.5	1.51723	blue	0	up	up	GLO	left	far	1	intact	intact	f86e1967-f74c-492a-93b0-8eac09649762_fps_avg_aud.mp4	1	32	0.683631	0.114556	2	up	blue	1	0.364	high
405	7	4	0	auto	1.5	1.51596	red	1	up	up	GLO	right	close	0	intact	none	none	0	0	0.583039	0	1	down	red	1	0.374	high
405	7	5	0	auto	1.5	1.51717	red	0	down	down	GLO	left	far	1	intact	intact	8131cc16-56a9-45d8-8dab-20ead5938e0a_fps_avg_aud.mp4	1	0	0.605966	0	1	down	red	1	0.384	high
405	7	6	0	auto	1.5	1.51574	blue	0	up	up	GLO	right	far	1	intact	intact	Dec26_fps_avg_aud.mp4	1	0	0.671077	0	1	up	blue	1	0.394	high
405	7	7	0	auto	1.5	1.51677	yellow	0	left	left	GLO	right	far	0	intact	none	none	0	0	0.650563	0	1	left	yellow	1	0.404	high
405	7	8	0	auto	1.5	1.51568	blue	0	up	up	GLO	right	close	1	intact	intact	July21_fps_avg_aud.mp4	1	0	0.667257	0	1	right	green	0	0.394	high
405	7	9	0	auto	1.5	1.51579	yellow	0	left	left	GLO	left	far	1	intact	intact	Jun24_fps_avg_aud.mp4	1	0	0.67281	0	1	left	yellow	1	0.404	high
405	7	10	0	auto	1.5	1.51576	blue	0	up	up	GLO	right	far	1	intact	intact	Jun16_fps_avg_aud.mp4	1	0	1.60025	0	1	up	blue	1	0.414	high
405	7	11	0	auto	1.5	1.51654	blue	1	left	left	GLO	right	close	1	intact	intact	25a8b4d4-d5c7-4aab-af49-84ebba90c3be_fps_avg_aud.mp4	1	0	0.546394	0	1	up	blue	1	0.424	high
405	7	12	0	auto	1.5	1.51719	yellow	0	left	left	GLO	left	far	1	intact	intact	cc0b25a9-3d1b-4c67-b1c5-5f27d60e59cb_fps_avg_aud.mp4	1	0	0.633027	0	1	left	yellow	1	0.434	high
405	7	13	0	auto	1.5	1.51565	green	0	right	right	GLO	right	close	1	intact	intact	March25_2016_fps_avg_aud.mp4	1	0	0.500683	0	1	right	green	1	0.444	high
405	7	14	0	auto	1.5	1.51731	red	0	down	down	GLO	right	close	1	intact	intact	33d05c43-ee7c-4877-9419-344c4009c91e_fps_avg_aud.mp4	1	0	0.641436	0	1	down	red	1	0.454	high
405	7	15	0	auto	1.5	1.5159	yellow	1	down	down	GLO	left	far	1	intact	intact	Nov24_fps_avg_aud.mp4	1	0	1.05525	0	1	left	yellow	1	0.464	high
405	7	16	0	auto	1.5	1.51733	green	0	right	right	GLO	left	close	1	intact	intact	aef9b535-d7ad-47d4-adb8-d3ac2abf6652_fps_avg_aud.mp4	1	0	0.805623	0	1	right	green	1	0.474	high
405	7	17	0	auto	1.5	1.5158	blue	0	up	up	GLO	right	close	1	intact	intact	02831e99-5ac8-4fc5-9e76-9a04224fb33e_fps_avg_aud.mp4	1	18	0.963248	0.0845538	1	up	blue	1	0.484	high
405	7	18	0	auto	1.5	1.51657	green	0	right	right	GLO	right	close	0	intact	none	none	0	0	0.83319	0	1	right	green	1	0.494	high
405	7	19	0	auto	1.5	1.51719	blue	1	down	down	GLO	left	close	0	intact	none	none	0	0	0.6001	0	1	down	red	0	0.484	high
405	7	20	0	auto	1.5	1.51678	green	1	down	down	GLO	right	far	0	intact	none	none	0	0	0.942584	0	1	right	green	1	0.494	high
405	7	21	0	auto	1.5	1.51665	yellow	0	left	left	GLO	left	close	1	intact	intact	June_2016_(1)_fps_avg_aud.mp4	1	0	0.716215	0	1	left	yellow	1	0.504	high
405	7	22	0	auto	1.5	1.51712	green	0	right	right	GLO	right	close	1	intact	intact	Feb19_fps_avg_aud.mp4	1	38	0.666493	0.145102	1	right	green	1	0.514	high
405	7	23	0	auto	1.5	1.51709	green	1	down	down	GLO	right	close	1	intact	intact	8b0c9e6a-53bd-46f6-908f-7a8316798b92_fps_avg_aud.mp4	1	34	1.53712	0.151564	1	right	green	1	0.524	high
405	7	24	0	auto	1.5	1.5171	yellow	0	left	left	GLO	left	far	1	intact	intact	March_15_2016_fps_avg_aud.mp4	1	0	0.588469	0	1	left	yellow	1	0.534	high
405	7	25	0	auto	1.5	1.51578	red	0	down	down	GLO	right	close	0	intact	none	none	0	0	0.567177	0	1	down	red	1	0.544	high
405	7	26	0	auto	1.5	1.51694	yellow	0	left	left	GLO	left	far	0	intact	none	none	0	0	0.800097	0	1	left	yellow	1	0.554	high
405	7	27	0	auto	1.5	NaN	yellow	0	left	left	GLO	none	far	0	intact	none	none	0	0	NaN	NaN	NaN	none	none	NaN	0.554	high
405	7	28	0	auto	1.5	NaN	blue	1	down	down	GLO	none	close	1	intact	intact	a3a57263-6857-435d-87b3-5c44ae53e10a_fps_avg_aud.mp4	0	0	NaN	NaN	NaN	none	none	NaN	0.554	high
405	7	29	0	auto	1.5	NaN	green	1	up	up	GLO	none	far	1	intact	intact	march_21_2016_fps_avg_aud.mp4	0	0	NaN	NaN	NaN	none	none	NaN	0.554	high
405	7	30	0	auto	1.5	NaN	yellow	1	right	right	GLO	none	close	1	intact	intact	October_20_2016_fps_avg_aud.mp4	0	0	NaN	NaN	NaN	none	none	NaN	0.554	high
405	7	31	0	auto	1.5	NaN	blue	0	up	up	GLO	none	far	1	intact	intact	24d66d05-cb47-4803-b009-da6ae79affa7_fps_avg_aud.mp4	0	0	NaN	NaN	NaN	none	none	NaN	0.554	high
405	7	32	0	auto	1.5	NaN	blue	1	right	right	GLO	none	far	0	intact	none	none	0	0	NaN	NaN	NaN	none	none	NaN	0.554	high
405	7	33	0	auto	1.5	NaN	blue	1	right	right	GLO	none	far	0	intact	none	none	0	0	NaN	NaN	NaN	none	none	NaN	0.554	high
405	7	34	0	auto	1.5	NaN	green	0	right	right	GLO	none	close	1	intact	intact	Dec12_fps_avg_aud.mp4	0	0	NaN	NaN	NaN	none	none	NaN	0.554	high
405	7	35	0	auto	1.5	NaN	red	0	down	down	GLO	none	far	1	intact	intact	Nov30_fps_avg_aud.mp4	0	0	NaN	NaN	NaN	none	none	NaN	0.554	high
405	7	36	0	auto	1.5	NaN	red	0	down	down	GLO	none	far	0	intact	none	none	0	0	NaN	NaN	NaN	none	none	NaN	0.554	high
405	7	37	0	auto	1.5	NaN	red	1	up	up	GLO	none	close	0	intact	none	none	0	0	NaN	NaN	NaN	none	none	NaN	0.554	high
405	8	1	0	self	1.5	1.51667	blue	1	left	left	GLO	left	far	1	intact	intact	9874ea15-f388-4d7d-ae5d-51013a69fee3_fps_avg_aud.mp4	0	0	0.884349	0	1	up	blue	1	0.555	low
405	8	2	0	self	1.5	1.51685	red	0	down	down	GLO	left	close	1	intact	intact	8fa6e47a-355a-4a52-986e-ef49886619e0_fps_avg_aud.mp4	0	0	0.466143	0	1	down	red	1	0.556	low
405	8	3	0	self	1.5	1.51685	yellow	1	up	up	GLO	right	far	1	intact	intact	Nmarch1222015_fps_avg_aud.mp4	0	0	0.800575	0	1	right	green	0	0.555	low
405	8	4	0	self	1.5	1.51584	red	0	down	down	GLO	right	close	1	intact	intact	January_10_2016_fps_avg_aud.mp4	0	0	0.600744	0	1	down	red	1	0.556	low
405	8	5	0	self	1.5	1.51567	blue	0	up	up	GLO	left	close	1	intact	intact	may_28_2015_fps_avg_aud.mp4	0	0	0.43348	0	1	up	blue	1	0.557	low
405	8	6	0	self	1.5	1.51677	green	0	right	right	GLO	right	close	1	intact	intact	Jan20_fps_avg_aud.mp4	0	0	0.582817	0	1	right	green	1	0.558	low
405	8	7	0	self	1.5	1.51698	green	1	left	left	GLO	right	far	1	intact	intact	October_10_2016_(1)_fps_avg_aud.mp4	0	0	0.581608	0	1	right	green	1	0.559	low
405	8	8	0	self	1.5	1.5158	blue	0	up	up	GLO	right	far	1	intact	intact	b1dabac3-204f-4571-b892-69eb87e805d0_fps_avg_aud.mp4	0	0	0.46698	0	1	up	blue	1	0.56	low
405	8	9	0	self	1.5	1.51691	yellow	0	left	left	GLO	left	close	1	intact	intact	May_30_2016_fps_avg_aud.mp4	0	0	0.850229	0	1	left	yellow	1	0.561	low
405	8	10	0	self	1.5	1.51731	yellow	1	right	right	GLO	right	close	1	intact	intact	63b4d034-af4a-4a03-8aa0-83818020367c_fps_avg_aud.mp4	0	0	0.732491	0	1	left	yellow	1	0.562	low
405	8	11	0	self	1.5	1.51698	yellow	0	left	left	GLO	left	far	1	intact	intact	June_112016_fps_avg_aud.mp4	0	0	0.432152	0	1	left	yellow	1	0.563	low
405	8	12	0	self	1.5	1.51726	red	0	down	down	GLO	left	far	1	intact	intact	ab1e6c91-a115-4b2d-8609-b4e2233254d6_fps_avg_aud.mp4	0	0	0.482912	0	1	down	red	1	0.564	low
405	8	13	0	self	1.5	1.5167	blue	1	down	down	GLO	left	close	1	intact	intact	705c0056-c7dd-4090-a27e-8956e33cb4b0_fps_avg_aud.mp4	0	0	0.433425	0	1	up	blue	1	0.565	low
405	8	14	0	self	1.5	1.51607	red	0	down	down	GLO	left	far	1	intact	intact	942f20a2-a776-400d-9488-0c1647ebd585_fps_avg_aud.mp4	0	0	1.26646	0	1	down	red	1	0.566	low
405	8	15	0	self	1.5	1.51684	blue	1	down	down	GLO	left	close	1	intact	intact	fa34c2a5-d3e2-4d1e-914f-e40c92a49120_fps_avg_aud.mp4	0	0	0.733446	0	1	up	blue	1	0.567	low
405	8	16	0	self	1.5	1.51669	red	0	down	down	GLO	left	close	1	intact	intact	Mar20_fps_avg_aud.mp4	0	0	1.083	0	1	down	red	1	0.568	low
405	8	17	0	self	1.5	1.51689	blue	1	left	left	GLO	left	far	1	intact	intact	0ab2bdff-924c-46d2-b610-671d6f4f673e_fps_avg_aud.mp4	0	0	0.667206	0	1	up	blue	1	0.569	low
405	8	18	0	self	1.5	1.51727	red	0	down	down	GLO	left	far	1	intact	intact	July23_fps_avg_aud.mp4	0	0	0.715757	0	1	down	red	1	0.57	low
405	8	19	0	self	1.5	1.51608	red	0	down	down	GLO	right	far	1	intact	intact	Nov6_fps_avg_aud.mp4	0	0	0.733332	0	1	down	red	1	0.571	low
405	8	20	0	self	1.5	1.51646	green	0	right	right	GLO	right	far	1	intact	intact	01790276-7d56-4063-9522-da49270e2a6b_fps_avg_aud.mp4	0	0	0.666846	0	1	right	green	1	0.572	low
405	8	21	0	self	1.5	1.51599	green	0	right	right	GLO	right	close	1	intact	intact	may_25_2015_fps_avg_aud.mp4	0	0	0.517297	0	1	right	green	1	0.573	low
405	8	22	0	self	1.5	1.51595	red	0	down	down	GLO	right	far	1	intact	intact	Sep27_fps_avg_aud.mp4	0	0	1.11766	0	1	down	red	1	0.574	low
405	8	23	0	self	1.5	1.51712	green	1	down	down	GLO	right	close	1	intact	intact	June_2016_(2)_fps_avg_aud.mp4	0	0	1.03281	0	1	left	yellow	0	0.573	low
405	8	24	0	self	1.5	1.5159	green	1	up	up	GLO	right	close	1	intact	intact	eec24f3a-496f-4cb7-8f48-5bf5530f3e96_fps_avg_aud.mp4	0	0	0.766553	0	1	right	green	1	0.574	low
405	8	25	0	self	1.5	1.51608	blue	1	left	left	GLO	left	close	1	intact	intact	7b9f55fa-3ddf-4c84-bb13-2413d53cbf75_fps_avg_aud.mp4	0	0	0.650262	0	1	up	blue	1	0.575	low
405	8	26	0	self	1.5	1.5168	green	1	up	up	GLO	left	far	1	intact	intact	86e20a10-46be-4f52-b05b-06877412cf60_fps_avg_aud.mp4	0	0	0.716466	0	1	right	green	1	0.576	low
405	8	27	0	self	1.5	1.51729	red	1	up	up	GLO	right	far	1	intact	intact	July31_fps_avg_aud.mp4	0	0	0.682212	0	1	down	red	1	0.577	low
405	8	28	0	self	1.5	NaN	blue	0	up	up	GLO	none	close	1	intact	intact	Mar30_fps_avg_aud.mp4	0	0	NaN	NaN	NaN	none	none	NaN	0.577	low
405	8	29	0	self	1.5	NaN	blue	1	down	down	GLO	none	far	1	intact	intact	Feb29_fps_avg_aud.mp4	0	0	NaN	NaN	NaN	none	none	NaN	0.577	low
405	8	30	0	self	1.5	NaN	red	1	left	left	GLO	none	close	1	intact	intact	Oct19_fps_avg_aud.mp4	0	0	NaN	NaN	NaN	none	none	NaN	0.577	low
405	8	31	0	self	1.5	NaN	green	1	up	up	GLO	none	far	1	intact	intact	e83d47c2-3289-4bb3-810c-afface120ccd_fps_avg_aud.mp4	0	0	NaN	NaN	NaN	none	none	NaN	0.577	low
405	8	32	0	self	1.5	NaN	yellow	0	left	left	GLO	none	close	1	intact	intact	b4d84d1f-224c-4414-9045-0f7e4fc94012_fps_avg_aud.mp4	0	0	NaN	NaN	NaN	none	none	NaN	0.577	low
405	8	33	0	self	1.5	NaN	red	0	down	down	GLO	none	close	1	intact	intact	779aa7ea-420b-4390-a149-5f24d3acfbfd_fps_avg_aud.mp4	0	0	NaN	NaN	NaN	none	none	NaN	0.577	low
405	8	34	0	self	1.5	NaN	green	0	right	right	GLO	none	close	1	intact	intact	Nov1_fps_avg_aud.mp4	0	0	NaN	NaN	NaN	none	none	NaN	0.577	low
405	8	35	0	self	1.5	NaN	yellow	1	down	down	GLO	none	close	1	intact	intact	Feb25_fps_avg_aud.mp4	0	0	NaN	NaN	NaN	none	none	NaN	0.577	low
405	8	36	0	self	1.5	NaN	red	1	up	up	GLO	none	close	1	intact	intact	5f534c39-dfe8-4a8d-a678-c406bcf9154d_fps_avg_aud.mp4	0	0	NaN	NaN	NaN	none	none	NaN	0.577	low
405	8	37	0	self	1.5	NaN	red	0	down	down	GLO	none	far	1	intact	intact	ede4a096-21dc-4ed4-9b28-6df0a7f6fe6b_fps_avg_aud.mp4	0	0	NaN	NaN	NaN	none	none	NaN	0.577	low
405	9	1	0	self	1.5	1.51619	red	1	left	left	GLO	right	close	1	intact	intact	ac670a32-9758-4aa8-b876-775cfe4f2e47_fps_avg_aud.mp4	0	0	0.633869	0	1	down	red	1	0.587	high
405	9	2	0	self	1.5	1.51636	yellow	0	left	left	GLO	left	close	1	intact	intact	b03a76d5-df04-4f1c-a621-096b7428dc43_fps_avg_aud.mp4	0	0	0.700861	0	1	left	yellow	1	0.597	high
405	9	3	0	self	1.5	1.51697	yellow	0	left	left	GLO	right	far	1	intact	intact	April_2015_(1)_fps_avg_aud.mp4	0	0	0.500028	0	1	left	yellow	1	0.607	high
405	9	4	0	self	1.5	1.51593	blue	1	down	down	GLO	right	close	1	intact	intact	November_2016_fps_avg_aud.mp4	0	0	0.393837	0	1	up	blue	1	0.617	high
405	9	5	0	self	1.5	1.51676	green	0	right	right	GLO	right	far	1	intact	intact	Feb17_fps_avg_aud.mp4	0	0	0.391646	0	1	right	green	1	0.627	high
405	9	6	0	self	1.5	1.51706	green	0	right	right	GLO	right	far	1	intact	intact	Jan30_fps_avg_aud.mp4	0	0	0.432887	0	1	right	green	1	0.637	high
405	9	7	0	self	1.5	1.51692	red	0	down	down	GLO	right	close	1	intact	intact	01790276-7d56-4063-9522-da49270e2a6b_fps_avg_aud.mp4	0	0	0.400006	0	1	down	red	1	0.647	high
405	9	8	0	self	1.5	1.51703	green	1	left	left	GLO	left	close	1	intact	intact	de8d0a62-04ca-452a-a478-93877cedee98_fps_avg_aud.mp4	0	0	0.599967	0	1	right	green	1	0.657	high
405	9	9	0	self	1.5	1.517	blue	0	up	up	GLO	right	far	1	intact	intact	54a93c98-7413-4e40-aca3-12bf7a6220c7_fps_avg_aud.mp4	0	0	0.450016	0	1	up	blue	1	0.667	high
405	9	10	0	self	1.5	1.51702	green	1	left	left	GLO	right	close	1	intact	intact	f10531c5-f8e7-4f38-bd6c-28ce29d75760_fps_avg_aud.mp4	0	0	0.667533	0	1	right	green	1	0.677	high
405	9	11	0	self	1.5	1.51716	red	1	up	up	GLO	right	far	1	intact	intact	Oct19_fps_avg_aud.mp4	0	0	0.649909	0	1	down	red	1	0.687	high
405	9	12	0	self	1.5	1.51705	red	1	right	right	GLO	right	close	1	intact	intact	32a37ce7-a199-40eb-b5c5-b974866ffc28_fps_avg_aud.mp4	0	0	0.693655	0	1	down	red	1	0.697	high
405	9	13	0	self	1.5	1.51699	blue	1	left	left	GLO	right	far	1	intact	intact	d021cb9c-36bf-48fb-9474-23511a956f6a_fps_avg_aud.mp4	0	0	0.650399	0	1	up	blue	1	0.707	high
405	9	14	0	self	1.5	1.51729	green	0	right	right	GLO	left	close	1	intact	intact	f5740bdb-f6a7-4842-9fa8-065f8eed57f4_fps_avg_aud.mp4	0	0	0.528649	0	1	right	green	1	0.717	high
405	9	15	0	self	1.5	1.51591	red	0	down	down	GLO	right	close	1	intact	intact	7ef90bcf-5b2a-4df5-b522-5d3f1e9badf1_fps_avg_aud.mp4	0	0	0.649904	0	1	down	red	1	0.727	high
405	9	16	0	self	1.5	1.51687	yellow	1	right	right	GLO	left	close	1	intact	intact	af1072d0-b5fe-435b-b10d-545750eb973b_fps_avg_aud.mp4	0	0	0.90751	0	1	left	yellow	1	0.737	high
405	9	17	0	self	1.5	1.51713	yellow	1	up	up	GLO	left	close	1	intact	intact	June_2016_(3)_fps_avg_aud.mp4	0	0	0.543071	0	1	left	yellow	1	0.747	high
405	9	18	0	self	1.5	1.51708	red	0	down	down	GLO	left	close	1	intact	intact	e9f06abd-24bb-46d2-ac8b-3a473a758d7e_fps_avg_aud.mp4	0	0	0.75039	0	1	down	red	1	0.757	high
405	9	19	0	self	1.5	1.51725	blue	0	up	up	GLO	left	far	1	intact	intact	2925915c-d027-4d48-be00-616870d6d158_fps_avg_aud.mp4	0	0	0.476038	0	1	up	blue	1	0.767	high
405	9	20	0	self	1.5	1.51698	red	0	down	down	GLO	left	close	1	intact	intact	1ad967f4-1728-4eb7-88a5-9d6ad488c3b4_fps_avg_aud.mp4	0	0	0.528833	0	1	down	red	1	0.777	high
405	9	21	0	self	1.5	1.51687	red	1	right	right	GLO	left	far	1	intact	intact	Jun21_fps_avg_aud.mp4	0	0	0.483542	0	1	down	red	1	0.787	high
405	9	22	0	self	1.5	1.517	red	0	down	down	GLO	right	close	1	intact	intact	Mar4_fps_avg_aud.mp4	0	0	0.400246	0	1	down	red	1	0.797	high
405	9	23	0	self	1.5	1.51607	blue	1	right	right	GLO	right	far	1	intact	intact	08d3f099-f57f-4490-a984-630519ad1c45_fps_avg_aud.mp4	0	0	0.917042	0	1	up	blue	1	0.807	high
405	9	24	0	self	1.5	1.51735	yellow	1	right	right	GLO	right	close	1	intact	intact	e6c6cdbe-2a63-4eeb-b544-6fc0a25dc157_fps_avg_aud.mp4	0	0	1.43289	0	1	left	yellow	1	0.817	high
405	9	25	0	self	1.5	1.51602	blue	1	left	left	GLO	left	close	1	intact	intact	Mar3_fps_avg_aud.mp4	0	0	0.641652	0	1	up	blue	1	0.827	high
405	9	26	0	self	1.5	1.516	yellow	0	left	left	GLO	right	close	1	intact	intact	Jan13_fps_avg_aud.mp4	0	0	0.767292	0	1	left	yellow	1	0.837	high
405	9	27	0	self	1.5	1.51717	red	1	left	left	GLO	right	far	1	intact	intact	bb75a9e7-75e9-4641-8e0c-ecaabf7a7e69(1)_fps_avg_aud.mp4	0	0	1.79671	0	1	down	red	1	0.847	high
405	9	28	0	self	1.5	1.51772	green	1	up	up	GLO	right	close	1	intact	intact	cea732af-276b-4e98-ac0e-85adfd7a4545_fps_avg_aud.mp4	0	0	0.966359	0	1	right	green	1	0.857	high
405	9	29	0	self	1.5	NaN	green	1	left	left	GLO	none	far	1	intact	intact	august_15_2016_fps_avg_aud.mp4	0	0	NaN	NaN	NaN	none	none	NaN	0.857	high
405	9	30	0	self	1.5	NaN	red	0	down	down	GLO	none	far	1	intact	intact	6d873e1d-8ad7-4688-a181-c3322982e4a6_fps_avg_aud.mp4	0	0	NaN	NaN	NaN	none	none	NaN	0.857	high
405	9	31	0	self	1.5	NaN	green	1	left	left	GLO	none	far	1	intact	intact	149f1481-9792-4892-beba-4137601f26a6_fps_avg_aud.mp4	0	0	NaN	NaN	NaN	none	none	NaN	0.857	high
405	9	32	0	self	1.5	NaN	green	0	right	right	GLO	none	close	1	intact	intact	24481237-3ead-4e6a-9a61-be95f34bf5f2_fps_avg_aud.mp4	0	0	NaN	NaN	NaN	none	none	NaN	0.857	high
405	9	33	0	self	1.5	NaN	green	0	right	right	GLO	none	far	1	intact	intact	c3c668bd-3353-4887-b3ff-6d0225f5629c_fps_avg_aud.mp4	0	0	NaN	NaN	NaN	none	none	NaN	0.857	high
405	9	34	0	self	1.5	NaN	yellow	1	right	right	GLO	none	far	1	intact	intact	Sep22_fps_avg_aud.mp4	0	0	NaN	NaN	NaN	none	none	NaN	0.857	high
405	9	35	0	self	1.5	NaN	blue	1	right	right	GLO	none	far	1	intact	intact	August1_fps_avg_aud.mp4	0	0	NaN	NaN	NaN	none	none	NaN	0.857	high
405	9	36	0	self	1.5	NaN	blue	1	left	left	GLO	none	close	1	intact	intact	f001cded-b985-4905-a6ac-c1793ff8fab2_fps_avg_aud.mp4	0	0	NaN	NaN	NaN	none	none	NaN	0.857	high
405	9	37	0	self	1.5	NaN	green	0	right	right	GLO	none	far	1	intact	intact	jun13_fps_avg_aud.mp4	0	0	NaN	NaN	NaN	none	none	NaN	0.857	high
405	10	1	0	auto	1.5	1.51708	yellow	1	down	down	GLO	left	far	0	intact	none	none	0	0	1.00883	0	1	left	yellow	1	0.858	low
405	10	2	0	auto	1.5	1.5168	yellow	0	left	left	GLO	right	close	1	intact	intact	ed9842b1-ccb5-4e6e-8fcb-d81eb3d6f297_fps_avg_aud.mp4	1	0	0.998343	0	1	left	yellow	1	0.859	low
405	10	3	0	auto	1.5	1.51602	yellow	0	left	left	GLO	right	far	0	intact	none	none	0	0	0.706967	0	1	left	yellow	1	0.86	low
405	10	4	0	auto	1.5	1.51695	blue	0	up	up	GLO	left	far	1	intact	intact	5022b285-2c2f-4e4f-824d-5e45be82c1a3_fps_avg_aud.mp4	1	0	1.2329	0	1	up	blue	1	0.861	low
405	10	5	0	auto	1.5	1.5158	green	1	up	up	GLO	left	close	1	intact	intact	Nov11_fps_avg_aud.mp4	1	0	0.70339	0	1	right	green	1	0.862	low
405	10	6	0	auto	1.5	1.51646	blue	1	left	left	GLO	right	close	1	intact	intact	July27_fps_avg_aud.mp4	1	0	0.679997	0	1	up	blue	1	0.863	low
405	10	7	0	auto	1.5	1.51687	red	0	down	down	GLO	right	close	1	intact	intact	b1dabac3-204f-4571-b892-69eb87e805d0_fps_avg_aud.mp4	1	9	0.707148	0.0335205	1	down	red	1	0.864	low
405	10	8	0	auto	1.5	1.51683	red	0	down	down	GLO	left	far	1	intact	intact	May8_fps_avg_aud.mp4	1	0	0.734464	0	1	down	red	1	0.865	low
405	10	9	0	auto	1.5	1.51689	blue	1	right	right	GLO	right	far	1	intact	intact	4db3f410-b7dd-4157-a876-374c50f0a479_fps_avg_aud.mp4	1	0	0.536358	0	1	right	green	0	0.864	low
405	10	10	0	auto	1.5	1.51591	blue	0	up	up	GLO	right	close	0	intact	none	none	0	0	0.634039	0	1	up	blue	1	0.865	low
405	10	11	0	auto	1.5	1.51716	red	1	left	left	GLO	left	close	0	intact	none	none	0	0	0.950013	0	1	down	red	1	0.866	low
405	10	12	0	auto	1.5	1.51705	green	0	right	right	GLO	left	far	1	intact	intact	02c095ee-b711-4594-b27d-87092fa292bb_fps_avg_aud.mp4	1	0	0.638944	0	1	right	green	1	0.867	low
405	10	13	0	auto	1.5	1.51593	red	0	down	down	GLO	left	far	1	intact	intact	July4_fps_avg_aud.mp4	1	3	0.614572	0.00521066	1	down	red	1	0.868	low
405	10	14	0	auto	1.5	1.51566	red	1	left	left	GLO	right	close	1	intact	intact	aaed05cf-98e5-42ad-91f7-ba579fcda996_fps_avg_aud.mp4	1	0	0.86702	0	1	down	red	1	0.869	low
405	10	15	0	auto	1.5	1.51586	red	0	down	down	GLO	right	close	1	intact	intact	023396f6-bdb5-478d-a725-e32d4f6b7be9_fps_avg_aud.mp4	1	0	0.471293	0	1	down	red	1	0.87	low
405	10	16	0	auto	1.5	1.51714	blue	0	up	up	GLO	left	far	0	intact	none	none	0	0	0.664428	0	1	up	blue	1	0.871	low
405	10	17	0	auto	1.5	1.51701	green	0	right	right	GLO	left	close	1	intact	intact	ea6675d4-3684-48c3-9bd0-c32d38c48c9e_fps_avg_aud.mp4	1	100	1.30846	0.414973	2	right	green	1	0.872	low
405	10	18	0	auto	1.5	1.51666	red	0	down	down	GLO	left	close	0	intact	none	none	0	0	0.700303	0	1	down	red	1	0.873	low
405	10	19	0	auto	1.5	1.51683	yellow	0	left	left	GLO	right	close	0	intact	none	none	0	0	1.53353	0	1	left	yellow	1	0.874	low
405	10	20	0	auto	1.5	1.51689	yellow	1	up	up	GLO	left	far	0	intact	none	none	0	0	0.490229	0	1	left	yellow	1	0.875	low
405	10	21	0	auto	1.5	1.51703	blue	1	left	left	GLO	right	close	0	intact	none	none	0	0	0.466994	0	1	up	blue	1	0.876	low
405	10	22	0	auto	1.5	1.51695	green	1	down	down	GLO	left	far	1	intact	intact	Mar19_fps_avg_aud.mp4	1	0	0.526117	0	1	right	green	1	0.877	low
405	10	23	0	auto	1.5	1.51711	green	1	down	down	GLO	right	far	1	intact	intact	January_2016_(2)_fps_avg_aud.mp4	1	0	0.530122	0	1	right	green	1	0.878	low
405	10	24	0	auto	1.5	1.51621	green	0	right	right	GLO	right	far	1	intact	intact	58fa2b05-06d6-4325-b14b-27b0a9645ea5_fps_avg_aud.mp4	1	0	0.784037	0	1	right	green	1	0.879	low
405	10	25	0	auto	1.5	1.51714	green	1	up	up	GLO	left	far	0	intact	none	none	0	0	0.41676	0	1	right	green	1	0.88	low
405	10	26	0	auto	1.5	1.51673	blue	1	left	left	GLO	left	far	1	intact	intact	de8d0a62-04ca-452a-a478-93877cedee98_fps_avg_aud.mp4	1	0	0.760094	0	1	up	blue	1	0.881	low
405	10	27	0	auto	1.5	NaN	green	0	right	right	GLO	none	far	1	intact	intact	October_20_2016_fps_avg_aud.mp4	0	0	NaN	NaN	NaN	none	none	NaN	0.881	low
405	10	28	0	auto	1.5	NaN	red	0	down	down	GLO	none	close	0	intact	none	none	0	0	NaN	NaN	NaN	none	none	NaN	0.881	low
405	10	29	0	auto	1.5	NaN	yellow	1	right	right	GLO	none	close	1	intact	intact	a36f5f1c-60eb-41c0-8ed1-09a4e01342bc_fps_avg_aud.mp4	0	0	NaN	NaN	NaN	none	none	NaN	0.881	low
405	10	30	0	auto	1.5	NaN	yellow	0	left	left	GLO	none	far	0	intact	none	none	0	0	NaN	NaN	NaN	none	none	NaN	0.881	low
405	10	31	0	auto	1.5	NaN	blue	1	left	left	GLO	none	far	1	intact	intact	cfde3402-3742-4dda-82a3-7c69c497e0f8_fps_avg_aud.mp4	0	0	NaN	NaN	NaN	none	none	NaN	0.881	low
405	10	32	0	auto	1.5	NaN	blue	1	down	down	GLO	none	far	0	intact	none	none	0	0	NaN	NaN	NaN	none	none	NaN	0.881	low
405	10	33	0	auto	1.5	NaN	green	0	right	right	GLO	none	close	1	intact	intact	705c0056-c7dd-4090-a27e-8956e33cb4b0_fps_avg_aud.mp4	0	0	NaN	NaN	NaN	none	none	NaN	0.881	low
405	10	34	0	auto	1.5	NaN	yellow	0	left	left	GLO	none	far	1	intact	intact	October_8_2016_fps_avg_aud.mp4	0	0	NaN	NaN	NaN	none	none	NaN	0.881	low
405	10	35	0	auto	1.5	NaN	yellow	1	down	down	GLO	none	close	0	intact	none	none	0	0	NaN	NaN	NaN	none	none	NaN	0.881	low
405	10	36	0	auto	1.5	NaN	red	0	down	down	GLO	none	close	0	intact	none	none	0	0	NaN	NaN	NaN	none	none	NaN	0.881	low
405	10	37	0	auto	1.5	NaN	green	1	left	left	GLO	none	close	1	intact	intact	cef9c179-f64d-4543-875f-6808da2329b6_fps_avg_aud.mp4	0	0	NaN	NaN	NaN	none	none	NaN	0.881	low
405	11	1	0	auto	1.5	1.51613	red	0	down	down	GLO	left	far	1	intact	intact	e4815a42-3a54-463e-aeba-1230af20106d_fps_avg_aud.mp4	1	0	0.587387	0	1	down	red	1	0.891	high
405	11	2	0	auto	1.5	1.51686	blue	1	left	left	GLO	left	far	1	intact	intact	January_2016_(4)_fps_avg_aud.mp4	1	0	1.14503	0	1	up	blue	1	0.901	high
405	11	3	0	auto	1.5	1.51649	blue	0	up	up	GLO	left	close	0	intact	none	none	0	0	0.509313	0	1	up	blue	1	0.911	high
405	11	4	0	auto	1.5	1.5169	green	0	right	right	GLO	left	far	0	intact	none	none	0	0	0.545275	0	1	right	green	1	0.921	high
405	11	5	0	auto	1.5	1.51698	yellow	1	up	up	GLO	right	far	0	intact	none	none	0	0	0.667077	0	1	left	yellow	1	0.931	high
405	11	6	0	auto	1.5	1.5172	green	1	up	up	GLO	right	close	0	intact	none	none	0	0	0.599336	0	1	right	green	1	0.941	high
405	11	7	0	auto	1.5	1.51617	green	0	right	right	GLO	left	close	0	intact	none	none	0	0	0.448462	0	1	right	green	1	0.951	high
405	11	8	0	auto	1.5	1.51608	yellow	1	down	down	GLO	left	far	1	intact	intact	01eb0290-d17b-4697-b87a-733d1ecfc12d_fps_avg_aud.mp4	1	0	0.744526	0	1	left	yellow	1	0.961	high
405	11	9	0	auto	1.5	1.51725	yellow	1	right	right	GLO	right	far	1	intact	intact	Sep19_fps_avg_aud.mp4	1	0	0.621408	0	1	left	yellow	1	0.971	high
405	11	10	0	auto	1.5	1.51678	green	0	right	right	GLO	right	close	1	intact	intact	f5740bdb-f6a7-4842-9fa8-065f8eed57f4_fps_avg_aud.mp4	1	0	0.676693	0	1	right	green	1	0.981	high
405	11	11	0	auto	1.5	1.5157	yellow	1	right	right	GLO	right	far	1	intact	intact	e00791ee-f5a4-4315-8214-e183c3e1d2cf_fps_avg_aud.mp4	1	0	0.604072	0	1	left	yellow	1	0.991	high
405	11	12	0	auto	1.5	1.51693	yellow	1	right	right	GLO	right	far	1	intact	intact	5c88b1ee-81ac-4658-85d2-80068b2841d0_fps_avg_aud.mp4	1	0	0.499875	0	1	left	yellow	1	1.001	high
405	11	13	0	auto	1.5	1.5158	green	0	right	right	GLO	left	far	0	intact	none	none	0	0	0.633613	0	1	right	green	1	1.011	high
405	11	14	0	auto	1.5	1.51732	blue	0	up	up	GLO	left	close	1	intact	intact	e1d4becd-1ca6-41b0-82ab-58d50a368204_fps_avg_aud.mp4	1	0	0.640166	0	1	up	blue	1	1.021	high
405	11	15	0	auto	1.5	1.5158	yellow	1	up	up	GLO	left	close	1	intact	intact	april_23_2015_fps_avg_aud.mp4	1	55	0.650588	0.239648	1	left	yellow	1	1.031	high
405	11	16	0	auto	1.5	1.51719	blue	0	up	up	GLO	right	close	1	intact	intact	a066c606-67e2-4c5d-b13d-471a21a18633_fps_avg_aud.mp4	1	0	1.20794	0	1	up	blue	1	1.041	high
405	11	17	0	auto	1.5	1.51604	green	1	down	down	GLO	left	close	1	intact	intact	cb6ef54e-2b4c-4064-8d68-1ca2b2e8a47c_fps_avg_aud.mp4	1	0	0.834234	0	1	right	green	1	1.051	high
405	11	18	0	auto	1.5	1.51713	red	1	up	up	GLO	right	far	0	intact	none	none	0	0	1.55025	0	1	up	blue	0	1.041	high
405	11	19	0	auto	1.5	1.51716	blue	1	left	left	GLO	left	close	1	intact	intact	7ef90bcf-5b2a-4df5-b522-5d3f1e9badf1_fps_avg_aud.mp4	1	0	1.01749	0	1	down	red	0	1.031	high
405	11	20	0	auto	1.5	1.51698	red	1	left	left	GLO	left	close	0	intact	none	none	0	0	1.0829	0	1	down	red	1	1.041	high
405	11	21	0	auto	1.5	1.51573	red	1	right	right	GLO	left	far	1	intact	intact	494caa55-f328-4782-a0b7-4f4f5ad41492_fps_avg_aud.mp4	1	0	0.473323	0	1	down	red	1	1.051	high
405	11	22	0	auto	1.5	1.51598	green	0	right	right	GLO	left	close	1	intact	intact	Jun21_fps_avg_aud.mp4	1	0	0.683869	0	1	right	green	1	1.061	high
405	11	23	0	auto	1.5	1.51604	yellow	1	down	down	GLO	right	far	0	intact	none	none	0	0	0.700441	0	1	left	yellow	1	1.071	high
405	11	24	0	auto	1.5	1.5166	red	0	down	down	GLO	left	close	1	intact	intact	483a899a-71a0-49cf-b2ba-f13374d6b0a8_fps_avg_aud.mp4	1	0	0.718497	0	1	down	red	1	1.081	high
405	11	25	0	auto	1.5	1.51605	red	0	down	down	GLO	right	close	0	intact	none	none	0	0	0.532829	0	1	down	red	1	1.091	high
405	11	26	0	auto	1.5	1.51688	green	0	right	right	GLO	left	far	1	intact	intact	648cf5a2-5dc9-46b3-bf61-9e51533fa6ad_fps_avg_aud.mp4	1	0	1.60035	0	1	right	green	1	1.101	high
405	11	27	0	auto	1.5	NaN	red	0	down	down	GLO	none	far	1	intact	intact	801d308b-7fe8-4a7f-8ad6-dafa42c9e3af_fps_avg_aud.mp4	0	0	NaN	NaN	NaN	none	none	NaN	1.101	high
405	11	28	0	auto	1.5	NaN	yellow	1	down	down	GLO	none	far	1	intact	intact	december_2015_(4)_fps_avg_aud.mp4	0	0	NaN	NaN	NaN	none	none	NaN	1.101	high
405	11	29	0	auto	1.5	NaN	red	1	up	up	GLO	none	close	1	intact	intact	Mar4_fps_avg_aud.mp4	0	0	NaN	NaN	NaN	none	none	NaN	1.101	high
405	11	30	0	auto	1.5	NaN	blue	0	up	up	GLO	none	close	1	intact	intact	5e28083f-f416-4168-bfde-2e1ddfaaf60e_fps_avg_aud.mp4	0	0	NaN	NaN	NaN	none	none	NaN	1.101	high
