ID	Block	Trials	Practice	VideoStart	ITI	ITI_measured	Color	Conflict	Global	Local	Task	Video_pos	Video_dist	Video_present	Video_cat_cond	Video_cat	Video	VideoPlayed	VideoCheck	RT	DT	Visits	KeyPress	KeyColor	Correct	Reward	RewardCond
407	1	1	1	none	1.5	1.47632	yellow	1	down	down	GLO	left	close	0	intact	none	none	0	0	0.92945	0	1	left	yellow	1	0	0
407	1	2	1	none	1.5	1.51633	yellow	1	down	down	GLO	left	close	0	intact	none	none	0	0	0.677694	0	1	left	yellow	1	0	0
407	1	3	1	none	1.5	1.51623	green	0	right	right	GLO	left	close	0	intact	none	none	0	0	1.37908	0	1	right	green	1	0	0
407	1	4	1	none	1.5	1.51597	yellow	1	down	down	GLO	left	close	0	intact	none	none	0	0	0.744279	0	1	left	yellow	1	0	0
407	1	5	1	none	1.5	1.5168	yellow	1	down	down	GLO	left	far	0	intact	none	none	0	0	0.782944	0	1	left	yellow	1	0	0
407	1	6	1	none	1.5	1.51672	green	0	right	right	GLO	right	far	0	intact	none	none	0	0	0.650154	0	1	right	green	1	0	0
407	1	7	1	none	1.5	1.51664	yellow	1	up	up	GLO	left	close	0	intact	none	none	0	0	0.842286	0	1	left	yellow	1	0	0
407	1	8	1	none	1.5	1.51602	green	0	right	right	GLO	right	far	0	intact	none	none	0	0	0.699699	0	1	right	green	1	0	0
407	1	9	1	none	1.5	1.51664	green	1	down	down	GLO	left	close	0	intact	none	none	0	0	0.850157	0	1	right	green	1	0	0
407	1	10	1	none	1.5	1.51678	green	1	down	down	GLO	left	far	0	intact	none	none	0	0	0.846078	0	1	right	green	1	0	0
407	1	11	1	none	1.5	1.51609	blue	0	up	up	GLO	right	close	0	intact	none	none	0	0	0.684459	0	1	up	blue	1	0	0
407	1	12	1	none	1.5	1.51629	green	1	up	up	GLO	left	close	0	intact	none	none	0	0	1.03389	0	1	right	green	1	0	0
407	1	13	1	none	1.5	1.51629	yellow	1	down	down	GLO	right	far	0	intact	none	none	0	0	0.833473	0	1	left	yellow	1	0	0
407	1	14	1	none	1.5	1.5166	yellow	1	down	down	GLO	left	close	0	intact	none	none	0	0	0.767116	0	1	left	yellow	1	0	0
407	1	15	1	none	1.5	1.51713	blue	1	down	down	GLO	right	far	0	intact	none	none	0	0	0.882227	0	1	up	blue	1	0	0
407	1	16	1	none	1.5	1.5168	red	1	left	left	GLO	right	close	0	intact	none	none	0	0	0.799441	0	1	down	red	1	0	0
407	1	17	1	none	1.5	1.51696	green	0	right	right	GLO	right	far	0	intact	none	none	0	0	0.731805	0	1	right	green	1	0	0
407	1	18	1	none	1.5	1.51731	yellow	0	left	left	GLO	left	far	0	intact	none	none	0	0	0.799198	0	1	left	yellow	1	0	0
407	1	19	1	none	1.5	1.51628	yellow	0	left	left	GLO	right	close	0	intact	none	none	0	0	0.584252	0	1	left	yellow	1	0	0
407	1	20	1	none	1.5	1.51642	blue	1	down	down	GLO	left	close	0	intact	none	none	0	0	0.800501	0	1	up	blue	1	0	0
407	1	21	1	none	1.5	1.51733	yellow	1	right	right	GLO	right	close	0	intact	none	none	0	0	0.649059	0	1	left	yellow	1	0	0
407	1	22	1	none	1.5	1.51674	green	0	right	right	GLO	right	far	0	intact	none	none	0	0	1.09964	0	1	right	green	1	0	0
407	1	23	1	none	1.5	1.51689	blue	0	up	up	GLO	right	close	0	intact	none	none	0	0	0.824322	0	1	up	blue	1	0	0
407	1	24	1	none	1.5	1.51702	green	0	right	right	GLO	right	far	0	intact	none	none	0	0	0.583627	0	1	right	green	1	0	0
407	1	25	1	none	1.5	1.51706	green	0	right	right	GLO	right	close	0	intact	none	none	0	0	0.51679	0	1	right	green	1	0	0
407	1	26	1	none	1.5	1.51685	blue	1	right	right	GLO	right	close	0	intact	none	none	0	0	0.785467	0	1	up	blue	1	0	0
407	1	27	1	none	1.5	1.51701	red	0	down	down	GLO	right	close	0	intact	none	none	0	0	1.81673	0	1	down	red	1	0	0
407	1	28	1	none	1.5	1.51612	green	0	right	right	GLO	left	close	0	intact	none	none	0	0	0.737391	0	1	right	green	1	0	0
407	1	29	1	none	1.5	1.51702	yellow	0	left	left	GLO	right	close	0	intact	none	none	0	0	0.565911	0	1	left	yellow	1	0	0
407	1	30	1	none	1.5	1.51719	yellow	1	right	right	GLO	left	far	0	intact	none	none	0	0	0.583116	0	1	left	yellow	1	0	0
407	1	31	1	none	1.5	1.51706	yellow	1	up	up	GLO	left	close	0	intact	none	none	0	0	0.596296	0	1	left	yellow	1	0	0
407	1	32	1	none	1.5	1.51622	green	1	left	left	GLO	right	close	0	intact	none	none	0	0	0.546534	0	1	right	green	1	0	0
407	1	33	1	none	1.5	1.51641	green	0	right	right	GLO	right	far	0	intact	none	none	0	0	0.917416	0	1	right	green	1	0	0
407	1	34	1	none	1.5	1.51677	yellow	0	left	left	GLO	left	close	0	intact	none	none	0	0	0.500012	0	1	left	yellow	1	0	0
407	1	35	1	none	1.5	1.51629	blue	0	up	up	GLO	left	far	0	intact	none	none	0	0	0.581096	0	1	up	blue	1	0	0
407	1	36	1	none	1.5	1.51602	yellow	0	left	left	GLO	left	close	0	intact	none	none	0	0	0.534087	0	1	left	yellow	1	0	0
407	1	37	1	none	0.5	0.516177	red	0	down	down	GLO	right	close	0	intact	none	none	0	0	1.66726	0	1	down	red	1	0	0
407	1	38	1	none	0.5	0.517025	red	1	right	right	GLO	right	far	0	intact	none	none	0	0	0.617201	0	1	down	red	1	0	0
407	1	39	1	none	0.5	0.516301	green	1	up	up	GLO	right	close	0	intact	none	none	0	0	0.900383	0	1	right	green	1	0	0
407	1	40	1	none	0.5	0.516786	red	1	right	right	GLO	right	close	0	intact	none	none	0	0	0.863623	0	1	down	red	1	0	0
407	1	41	1	none	0.5	0.516235	green	1	left	left	GLO	right	far	0	intact	none	none	0	0	0.63401	0	1	right	green	1	0	0
407	1	42	1	none	0.5	0.516254	green	0	right	right	GLO	right	far	0	intact	none	none	0	0	0.750598	0	1	right	green	1	0	0
407	1	43	1	none	0.5	0.516783	red	0	down	down	GLO	left	close	0	intact	none	none	0	0	0.700296	0	1	down	red	1	0	0
407	1	44	1	none	0.5	0.517014	blue	0	up	up	GLO	right	close	0	intact	none	none	0	0	0.733776	0	1	up	blue	1	0	0
407	1	45	1	none	0.5	0.517244	red	0	down	down	GLO	right	far	0	intact	none	none	0	0	0.758886	0	1	down	red	1	0	0
407	1	46	1	none	0.5	0.516663	green	0	right	right	GLO	left	close	0	intact	none	none	0	0	0.640731	0	1	right	green	1	0	0
407	1	47	1	none	0.5	0.516869	red	0	down	down	GLO	right	close	0	intact	none	none	0	0	0.832191	0	1	down	red	1	0	0
407	1	48	1	none	0.5	0.516955	blue	1	down	down	GLO	left	close	0	intact	none	none	0	0	0.732643	0	1	up	blue	1	0	0
407	1	49	1	none	0.5	0.517365	yellow	1	up	up	GLO	left	close	0	intact	none	none	0	0	0.616689	0	1	left	yellow	1	0	0
407	1	50	1	none	0.5	0.516704	red	0	down	down	GLO	left	close	0	intact	none	none	0	0	0.733502	0	1	down	red	1	0	0
407	1	51	1	none	0.5	0.516552	blue	0	up	up	GLO	right	close	0	intact	none	none	0	0	0.667052	0	1	up	blue	1	0	0
407	1	52	1	none	0.5	0.515669	green	1	up	up	GLO	right	far	0	intact	none	none	0	0	0.617805	0	1	right	green	1	0	0
407	1	53	1	none	0.5	0.516806	green	0	right	right	GLO	left	close	0	intact	none	none	0	0	0.600278	0	1	right	green	1	0	0
407	1	54	1	none	0.5	0.516994	green	1	down	down	GLO	right	close	0	intact	none	none	0	0	0.639271	0	1	right	green	1	0	0
407	1	55	1	none	0.5	0.516481	green	0	right	right	GLO	right	far	0	intact	none	none	0	0	0.534229	0	1	right	green	1	0	0
407	1	56	1	none	0.5	0.516419	red	0	down	down	GLO	left	far	0	intact	none	none	0	0	0.634056	0	1	down	red	1	0	0
407	1	57	1	none	0.5	0.516125	blue	0	up	up	GLO	right	far	0	intact	none	none	0	0	0.593546	0	1	up	blue	1	0	0
407	1	58	1	none	0.5	0.517098	green	1	left	left	GLO	left	close	0	intact	none	none	0	0	0.783226	0	1	right	green	1	0	0
407	1	59	1	none	0.5	0.516746	yellow	1	right	right	GLO	right	close	0	intact	none	none	0	0	0.666883	0	1	left	yellow	1	0	0
407	1	60	1	none	0.5	0.51623	yellow	1	up	up	GLO	left	far	0	intact	none	none	0	0	0.559219	0	1	left	yellow	1	0	0
407	1	61	1	none	0.5	0.516332	red	1	up	up	GLO	left	far	0	intact	none	none	0	0	1.00067	0	1	down	red	1	0	0
407	1	62	1	none	0.5	0.516123	yellow	0	left	left	GLO	left	close	0	intact	none	none	0	0	0.634212	0	1	left	yellow	1	0	0
407	1	63	1	none	0.5	0.516317	yellow	1	up	up	GLO	right	close	0	intact	none	none	0	0	0.545698	0	1	left	yellow	1	0	0
407	1	64	1	none	0.5	0.516015	blue	0	up	up	GLO	left	close	0	intact	none	none	0	0	0.750307	0	1	up	blue	1	0	0
407	1	65	1	none	0.5	0.516724	blue	1	down	down	GLO	left	far	0	intact	none	none	0	0	1.00039	0	1	up	blue	1	0	0
407	1	66	1	none	0.5	0.516407	green	0	right	right	GLO	right	close	0	intact	none	none	0	0	0.850632	0	1	right	green	1	0	0
407	1	67	1	none	0.5	0.516468	green	0	right	right	GLO	left	far	0	intact	none	none	0	0	0.700348	0	1	right	green	1	0	0
407	1	68	1	none	0.5	0.517271	yellow	1	up	up	GLO	right	close	0	intact	none	none	0	0	0.983229	0	1	up	blue	0	0	0
407	1	69	1	none	0.5	0.516761	red	1	left	left	GLO	right	close	0	intact	none	none	0	0	2.67305	0	1	down	red	1	0	0
407	1	70	1	none	0.5	0.516973	red	0	down	down	GLO	right	far	0	intact	none	none	0	0	0.750032	0	1	down	red	1	0	0
407	1	71	1	none	0.5	0.516899	blue	1	right	right	GLO	left	far	0	intact	none	none	0	0	1.01363	0	1	up	blue	1	0	0
407	1	72	1	none	0.5	0.516944	blue	0	up	up	GLO	right	close	0	intact	none	none	0	0	0.766258	0	1	up	blue	1	0	0
407	1	73	1	none	0.5	0.5164	blue	0	up	up	GLO	left	close	0	intact	none	none	0	0	0.700316	0	1	up	blue	1	0	0
407	1	74	1	none	0.5	0.516779	green	1	down	down	GLO	right	close	0	intact	none	none	0	0	0.633751	0	1	right	green	1	0	0
407	1	75	1	none	0.5	0.516804	blue	1	down	down	GLO	left	close	0	intact	none	none	0	0	1.23354	0	1	up	blue	1	0	0
407	1	76	1	none	0.5	0.5167	blue	0	up	up	GLO	left	far	0	intact	none	none	0	0	0.717453	0	1	up	blue	1	0	0
407	1	77	1	none	0.5	0.515545	green	1	left	left	GLO	left	far	0	intact	none	none	0	0	0.732491	0	1	right	green	1	0	0
407	1	78	1	none	0.5	0.515592	yellow	0	left	left	GLO	right	far	0	intact	none	none	0	0	0.567773	0	1	left	yellow	1	0	0
407	1	79	1	none	0.5	0.516546	blue	1	down	down	GLO	left	far	0	intact	none	none	0	0	1.06679	0	1	up	blue	1	0	0
407	1	80	1	none	0.5	0.517123	green	1	down	down	GLO	left	far	0	intact	none	none	0	0	0.728018	0	1	right	green	1	0	0
407	1	81	1	none	0.5	0.517148	yellow	1	up	up	GLO	right	close	0	intact	none	none	0	0	0.907413	0	1	left	yellow	1	0	0
407	1	82	1	none	0.5	0.516126	red	1	left	left	GLO	left	far	0	intact	none	none	0	0	0.910764	0	1	down	red	1	0	0
407	1	83	1	none	0.5	0.517122	red	1	up	up	GLO	left	far	0	intact	none	none	0	0	1.08062	0	1	down	red	1	0	0
407	1	84	1	none	0.5	0.517037	red	0	down	down	GLO	left	close	0	intact	none	none	0	0	0.650104	0	1	down	red	1	0	0
407	1	85	1	none	0.5	0.516488	green	1	up	up	GLO	right	close	0	intact	none	none	0	0	0.60066	0	1	right	green	1	0	0
407	1	86	1	none	0.5	0.515725	yellow	0	left	left	GLO	left	close	0	intact	none	none	0	0	0.49086	0	1	left	yellow	1	0	0
407	1	87	1	none	0.5	0.516994	green	0	right	right	GLO	left	close	0	intact	none	none	0	0	0.56665	0	1	right	green	1	0	0
407	1	88	1	none	0.5	0.515755	green	0	right	right	GLO	left	close	0	intact	none	none	0	0	0.500562	0	1	right	green	1	0	0
407	1	89	1	none	0.5	0.517054	red	0	down	down	GLO	left	close	0	intact	none	none	0	0	0.949501	0	1	down	red	1	0	0
407	1	90	1	none	0.5	0.517031	blue	0	up	up	GLO	right	far	0	intact	none	none	0	0	0.633185	0	1	up	blue	1	0	0
407	1	91	1	none	0.5	0.516886	green	0	right	right	GLO	right	close	0	intact	none	none	0	0	0.61703	0	1	right	green	1	0	0
407	1	92	1	none	0.5	0.517048	blue	0	up	up	GLO	left	far	0	intact	none	none	0	0	1.20039	0	1	up	blue	1	0	0
407	1	93	1	none	0.5	0.516293	yellow	0	left	left	GLO	left	far	0	intact	none	none	0	0	0.550537	0	1	left	yellow	1	0	0
407	1	94	1	none	0.5	NaN	green	0	right	right	GLO	none	far	0	intact	none	none	0	0	NaN	NaN	NaN	none	none	NaN	0	0
407	1	95	1	none	0.5	NaN	blue	0	up	up	GLO	none	close	0	intact	none	none	0	0	NaN	NaN	NaN	none	none	NaN	0	0
407	1	96	1	none	0.5	NaN	green	0	right	right	GLO	none	close	0	intact	none	none	0	0	NaN	NaN	NaN	none	none	NaN	0	0
407	1	97	1	none	0.5	NaN	yellow	0	left	left	GLO	none	close	0	intact	none	none	0	0	NaN	NaN	NaN	none	none	NaN	0	0
407	1	98	1	none	0.5	NaN	green	0	right	right	GLO	none	far	0	intact	none	none	0	0	NaN	NaN	NaN	none	none	NaN	0	0
407	1	99	1	none	0.5	NaN	blue	0	up	up	GLO	none	far	0	intact	none	none	0	0	NaN	NaN	NaN	none	none	NaN	0	0
407	1	100	1	none	0.5	NaN	red	0	down	down	GLO	none	far	0	intact	none	none	0	0	NaN	NaN	NaN	none	none	NaN	0	0
407	1	101	1	none	0.5	NaN	red	0	down	down	GLO	none	far	0	intact	none	none	0	0	NaN	NaN	NaN	none	none	NaN	0	0
407	1	102	1	none	0.5	NaN	red	0	down	down	GLO	none	close	0	intact	none	none	0	0	NaN	NaN	NaN	none	none	NaN	0	0
407	1	103	1	none	0.5	NaN	green	0	right	right	GLO	none	far	0	intact	none	none	0	0	NaN	NaN	NaN	none	none	NaN	0	0
407	1	104	1	none	0.5	NaN	blue	0	up	up	GLO	none	far	0	intact	none	none	0	0	NaN	NaN	NaN	none	none	NaN	0	0
407	1	105	1	none	0.5	NaN	blue	0	up	up	GLO	none	close	0	intact	none	none	0	0	NaN	NaN	NaN	none	none	NaN	0	0
407	1	106	1	none	0.5	NaN	red	0	down	down	GLO	none	far	0	intact	none	none	0	0	NaN	NaN	NaN	none	none	NaN	0	0
407	1	107	1	none	0.5	NaN	red	1	right	right	GLO	none	far	0	intact	none	none	0	0	NaN	NaN	NaN	none	none	NaN	0	0
407	1	108	1	none	0.5	NaN	blue	0	up	up	GLO	none	close	0	intact	none	none	0	0	NaN	NaN	NaN	none	none	NaN	0	0
407	1	109	1	none	0.5	NaN	yellow	1	right	right	GLO	none	close	0	intact	none	none	0	0	NaN	NaN	NaN	none	none	NaN	0	0
407	1	110	1	none	0.5	NaN	yellow	1	right	right	GLO	none	far	0	intact	none	none	0	0	NaN	NaN	NaN	none	none	NaN	0	0
407	1	111	1	none	0.5	NaN	red	0	down	down	GLO	none	close	0	intact	none	none	0	0	NaN	NaN	NaN	none	none	NaN	0	0
407	1	112	1	none	0.5	NaN	yellow	0	left	left	GLO	none	far	0	intact	none	none	0	0	NaN	NaN	NaN	none	none	NaN	0	0
407	1	113	1	none	0.5	NaN	blue	1	down	down	GLO	none	far	0	intact	none	none	0	0	NaN	NaN	NaN	none	none	NaN	0	0
407	1	114	1	none	0.5	NaN	green	0	right	right	GLO	none	far	0	intact	none	none	0	0	NaN	NaN	NaN	none	none	NaN	0	0
407	1	115	1	none	0.5	NaN	yellow	1	down	down	GLO	none	close	0	intact	none	none	0	0	NaN	NaN	NaN	none	none	NaN	0	0
407	1	116	1	none	0.5	NaN	red	0	down	down	GLO	none	far	0	intact	none	none	0	0	NaN	NaN	NaN	none	none	NaN	0	0
407	1	117	1	none	0.5	NaN	yellow	0	left	left	GLO	none	close	0	intact	none	none	0	0	NaN	NaN	NaN	none	none	NaN	0	0
407	1	118	1	none	0.5	NaN	yellow	1	right	right	GLO	none	close	0	intact	none	none	0	0	NaN	NaN	NaN	none	none	NaN	0	0
407	1	119	1	none	0.5	NaN	yellow	0	left	left	GLO	none	far	0	intact	none	none	0	0	NaN	NaN	NaN	none	none	NaN	0	0
407	1	120	1	none	0.5	NaN	blue	1	down	down	GLO	none	far	0	intact	none	none	0	0	NaN	NaN	NaN	none	none	NaN	0	0
407	1	121	1	none	0.5	NaN	yellow	0	left	left	GLO	none	close	0	intact	none	none	0	0	NaN	NaN	NaN	none	none	NaN	0	0
407	1	122	1	none	0.5	NaN	blue	1	down	down	GLO	none	far	0	intact	none	none	0	0	NaN	NaN	NaN	none	none	NaN	0	0
407	1	123	1	none	0.5	NaN	red	1	up	up	GLO	none	far	0	intact	none	none	0	0	NaN	NaN	NaN	none	none	NaN	0	0
407	1	124	1	none	0.5	NaN	yellow	1	down	down	GLO	none	close	0	intact	none	none	0	0	NaN	NaN	NaN	none	none	NaN	0	0
407	1	125	1	none	0.5	NaN	blue	1	left	left	GLO	none	close	0	intact	none	none	0	0	NaN	NaN	NaN	none	none	NaN	0	0
407	1	126	1	none	0.5	NaN	red	0	down	down	GLO	none	close	0	intact	none	none	0	0	NaN	NaN	NaN	none	none	NaN	0	0
407	1	127	1	none	0.5	NaN	blue	0	up	up	GLO	none	close	0	intact	none	none	0	0	NaN	NaN	NaN	none	none	NaN	0	0
407	1	128	1	none	0.5	NaN	red	0	down	down	GLO	none	close	0	intact	none	none	0	0	NaN	NaN	NaN	none	none	NaN	0	0
407	1	129	1	none	0.5	NaN	yellow	1	right	right	GLO	none	far	0	intact	none	none	0	0	NaN	NaN	NaN	none	none	NaN	0	0
407	1	130	1	none	0.5	NaN	blue	1	left	left	GLO	none	far	0	intact	none	none	0	0	NaN	NaN	NaN	none	none	NaN	0	0
407	1	131	1	none	0.5	NaN	yellow	1	down	down	GLO	none	close	0	intact	none	none	0	0	NaN	NaN	NaN	none	none	NaN	0	0
407	1	132	1	none	0.5	NaN	red	0	down	down	GLO	none	far	0	intact	none	none	0	0	NaN	NaN	NaN	none	none	NaN	0	0
407	1	133	1	none	0.5	NaN	green	1	up	up	GLO	none	far	0	intact	none	none	0	0	NaN	NaN	NaN	none	none	NaN	0	0
407	1	134	1	none	0.5	NaN	green	0	right	right	GLO	none	far	0	intact	none	none	0	0	NaN	NaN	NaN	none	none	NaN	0	0
407	1	135	1	none	0.5	NaN	yellow	1	up	up	GLO	none	close	0	intact	none	none	0	0	NaN	NaN	NaN	none	none	NaN	0	0
407	1	136	1	none	0.5	NaN	red	0	down	down	GLO	none	close	0	intact	none	none	0	0	NaN	NaN	NaN	none	none	NaN	0	0
407	1	137	1	none	0.5	NaN	green	1	up	up	GLO	none	close	0	intact	none	none	0	0	NaN	NaN	NaN	none	none	NaN	0	0
407	1	138	1	none	0.5	NaN	green	0	right	right	GLO	none	far	0	intact	none	none	0	0	NaN	NaN	NaN	none	none	NaN	0	0
407	1	139	1	none	0.5	NaN	red	1	right	right	GLO	none	far	0	intact	none	none	0	0	NaN	NaN	NaN	none	none	NaN	0	0
407	1	140	1	none	0.5	NaN	red	0	down	down	GLO	none	close	0	intact	none	none	0	0	NaN	NaN	NaN	none	none	NaN	0	0
407	1	141	1	none	0.5	NaN	red	1	left	left	GLO	none	far	0	intact	none	none	0	0	NaN	NaN	NaN	none	none	NaN	0	0
407	1	142	1	none	0.5	NaN	green	1	up	up	GLO	none	close	0	intact	none	none	0	0	NaN	NaN	NaN	none	none	NaN	0	0
407	1	143	1	none	0.5	NaN	red	0	down	down	GLO	none	close	0	intact	none	none	0	0	NaN	NaN	NaN	none	none	NaN	0	0
407	1	144	1	none	0.5	NaN	red	0	down	down	GLO	none	far	0	intact	none	none	0	0	NaN	NaN	NaN	none	none	NaN	0	0
407	1	145	1	none	0.5	NaN	yellow	0	left	left	GLO	none	close	0	intact	none	none	0	0	NaN	NaN	NaN	none	none	NaN	0	0
407	1	146	1	none	0.5	NaN	red	1	left	left	GLO	none	far	0	intact	none	none	0	0	NaN	NaN	NaN	none	none	NaN	0	0
407	1	147	1	none	0.5	NaN	yellow	0	left	left	GLO	none	close	0	intact	none	none	0	0	NaN	NaN	NaN	none	none	NaN	0	0
407	1	148	1	none	0.5	NaN	red	1	left	left	GLO	none	close	0	intact	none	none	0	0	NaN	NaN	NaN	none	none	NaN	0	0
407	1	149	1	none	0.5	NaN	blue	1	right	right	GLO	none	far	0	intact	none	none	0	0	NaN	NaN	NaN	none	none	NaN	0	0
407	1	150	1	none	0.5	NaN	green	1	up	up	GLO	none	close	0	intact	none	none	0	0	NaN	NaN	NaN	none	none	NaN	0	0
407	1	151	1	none	0.5	NaN	green	0	right	right	GLO	none	far	0	intact	none	none	0	0	NaN	NaN	NaN	none	none	NaN	0	0
407	1	152	1	none	0.5	NaN	red	1	left	left	GLO	none	close	0	intact	none	none	0	0	NaN	NaN	NaN	none	none	NaN	0	0
407	1	153	1	none	0.5	NaN	yellow	1	up	up	GLO	none	close	0	intact	none	none	0	0	NaN	NaN	NaN	none	none	NaN	0	0
407	1	154	1	none	0.5	NaN	green	1	up	up	GLO	none	far	0	intact	none	none	0	0	NaN	NaN	NaN	none	none	NaN	0	0
407	1	155	1	none	0.5	NaN	blue	0	up	up	GLO	none	close	0	intact	none	none	0	0	NaN	NaN	NaN	none	none	NaN	0	0
407	1	156	1	none	0.5	NaN	yellow	1	down	down	GLO	none	close	0	intact	none	none	0	0	NaN	NaN	NaN	none	none	NaN	0	0
407	1	157	1	none	0.5	NaN	yellow	1	up	up	GLO	none	far	0	intact	none	none	0	0	NaN	NaN	NaN	none	none	NaN	0	0
407	1	158	1	none	0.5	NaN	red	1	left	left	GLO	none	far	0	intact	none	none	0	0	NaN	NaN	NaN	none	none	NaN	0	0
407	1	159	1	none	0.5	NaN	blue	1	right	right	GLO	none	far	0	intact	none	none	0	0	NaN	NaN	NaN	none	none	NaN	0	0
407	1	160	1	none	0.5	NaN	red	0	down	down	GLO	none	close	0	intact	none	none	0	0	NaN	NaN	NaN	none	none	NaN	0	0
407	1	161	1	none	0.5	NaN	red	1	left	left	GLO	none	close	0	intact	none	none	0	0	NaN	NaN	NaN	none	none	NaN	0	0
407	1	162	1	none	0.5	NaN	red	1	up	up	GLO	none	far	0	intact	none	none	0	0	NaN	NaN	NaN	none	none	NaN	0	0
407	1	163	1	none	0.5	NaN	yellow	1	down	down	GLO	none	close	0	intact	none	none	0	0	NaN	NaN	NaN	none	none	NaN	0	0
407	1	164	1	none	0.5	NaN	blue	1	right	right	GLO	none	close	0	intact	none	none	0	0	NaN	NaN	NaN	none	none	NaN	0	0
407	1	165	1	none	0.5	NaN	green	1	left	left	GLO	none	close	0	intact	none	none	0	0	NaN	NaN	NaN	none	none	NaN	0	0
407	1	166	1	none	0.5	NaN	blue	0	up	up	GLO	none	far	0	intact	none	none	0	0	NaN	NaN	NaN	none	none	NaN	0	0
407	1	167	1	none	0.5	NaN	blue	0	up	up	GLO	none	far	0	intact	none	none	0	0	NaN	NaN	NaN	none	none	NaN	0	0
407	1	168	1	none	0.5	NaN	blue	1	left	left	GLO	none	far	0	intact	none	none	0	0	NaN	NaN	NaN	none	none	NaN	0	0
407	1	169	1	none	0.5	NaN	blue	1	right	right	GLO	none	far	0	intact	none	none	0	0	NaN	NaN	NaN	none	none	NaN	0	0
407	1	170	1	none	0.5	NaN	blue	0	up	up	GLO	none	close	0	intact	none	none	0	0	NaN	NaN	NaN	none	none	NaN	0	0
407	1	171	1	none	0.5	NaN	green	1	down	down	GLO	none	far	0	intact	none	none	0	0	NaN	NaN	NaN	none	none	NaN	0	0
407	1	172	1	none	0.5	NaN	red	1	up	up	GLO	none	close	0	intact	none	none	0	0	NaN	NaN	NaN	none	none	NaN	0	0
407	1	173	1	none	0.5	NaN	yellow	0	left	left	GLO	none	far	0	intact	none	none	0	0	NaN	NaN	NaN	none	none	NaN	0	0
407	1	174	1	none	0.5	NaN	yellow	1	down	down	GLO	none	close	0	intact	none	none	0	0	NaN	NaN	NaN	none	none	NaN	0	0
407	1	175	1	none	0.5	NaN	red	1	left	left	GLO	none	close	0	intact	none	none	0	0	NaN	NaN	NaN	none	none	NaN	0	0
407	1	176	1	none	0.5	NaN	green	0	right	right	GLO	none	close	0	intact	none	none	0	0	NaN	NaN	NaN	none	none	NaN	0	0
407	1	177	1	none	0.5	NaN	blue	0	up	up	GLO	none	close	0	intact	none	none	0	0	NaN	NaN	NaN	none	none	NaN	0	0
407	1	178	1	none	0.5	NaN	blue	0	up	up	GLO	none	far	0	intact	none	none	0	0	NaN	NaN	NaN	none	none	NaN	0	0
407	1	179	1	none	0.5	NaN	yellow	0	left	left	GLO	none	far	0	intact	none	none	0	0	NaN	NaN	NaN	none	none	NaN	0	0
407	1	180	1	none	0.5	NaN	red	0	down	down	GLO	none	far	0	intact	none	none	0	0	NaN	NaN	NaN	none	none	NaN	0	0
407	1	181	1	none	0.5	NaN	red	1	up	up	GLO	none	far	0	intact	none	none	0	0	NaN	NaN	NaN	none	none	NaN	0	0
407	1	182	1	none	0.5	NaN	green	1	left	left	GLO	none	far	0	intact	none	none	0	0	NaN	NaN	NaN	none	none	NaN	0	0
407	1	183	1	none	0.5	NaN	green	0	right	right	GLO	none	far	0	intact	none	none	0	0	NaN	NaN	NaN	none	none	NaN	0	0
407	1	184	1	none	0.5	NaN	yellow	0	left	left	GLO	none	far	0	intact	none	none	0	0	NaN	NaN	NaN	none	none	NaN	0	0
407	1	185	1	none	0.5	NaN	green	0	right	right	GLO	none	far	0	intact	none	none	0	0	NaN	NaN	NaN	none	none	NaN	0	0
407	1	186	1	none	0.5	NaN	red	0	down	down	GLO	none	close	0	intact	none	none	0	0	NaN	NaN	NaN	none	none	NaN	0	0
407	1	187	1	none	0.5	NaN	green	0	right	right	GLO	none	far	0	intact	none	none	0	0	NaN	NaN	NaN	none	none	NaN	0	0
407	1	188	1	none	0.5	NaN	red	0	down	down	GLO	none	close	0	intact	none	none	0	0	NaN	NaN	NaN	none	none	NaN	0	0
407	1	189	1	none	0.5	NaN	blue	1	left	left	GLO	none	far	0	intact	none	none	0	0	NaN	NaN	NaN	none	none	NaN	0	0
407	1	190	1	none	0.5	NaN	blue	1	right	right	GLO	none	far	0	intact	none	none	0	0	NaN	NaN	NaN	none	none	NaN	0	0
407	1	191	1	none	0.5	NaN	blue	0	up	up	GLO	none	close	0	intact	none	none	0	0	NaN	NaN	NaN	none	none	NaN	0	0
407	1	192	1	none	0.5	NaN	red	1	right	right	GLO	none	close	0	intact	none	none	0	0	NaN	NaN	NaN	none	none	NaN	0	0
407	1	193	1	none	0.5	NaN	yellow	1	up	up	GLO	none	close	0	intact	none	none	0	0	NaN	NaN	NaN	none	none	NaN	0	0
407	1	194	1	none	0.5	NaN	yellow	0	left	left	GLO	none	close	0	intact	none	none	0	0	NaN	NaN	NaN	none	none	NaN	0	0
407	1	195	1	none	0.5	NaN	blue	1	down	down	GLO	none	close	0	intact	none	none	0	0	NaN	NaN	NaN	none	none	NaN	0	0
407	1	196	1	none	0.5	NaN	green	0	right	right	GLO	none	far	0	intact	none	none	0	0	NaN	NaN	NaN	none	none	NaN	0	0
407	1	197	1	none	0.5	NaN	green	0	right	right	GLO	none	far	0	intact	none	none	0	0	NaN	NaN	NaN	none	none	NaN	0	0
407	1	198	1	none	0.5	NaN	yellow	0	left	left	GLO	none	far	0	intact	none	none	0	0	NaN	NaN	NaN	none	none	NaN	0	0
407	1	199	1	none	0.5	NaN	green	0	right	right	GLO	none	far	0	intact	none	none	0	0	NaN	NaN	NaN	none	none	NaN	0	0
407	1	200	1	none	0.5	NaN	yellow	1	up	up	GLO	none	close	0	intact	none	none	0	0	NaN	NaN	NaN	none	none	NaN	0	0
407	1	201	1	none	0.5	NaN	red	1	up	up	GLO	none	far	0	intact	none	none	0	0	NaN	NaN	NaN	none	none	NaN	0	0
407	1	202	1	none	0.5	NaN	red	0	down	down	GLO	none	close	0	intact	none	none	0	0	NaN	NaN	NaN	none	none	NaN	0	0
407	1	203	1	none	0.5	NaN	blue	1	right	right	GLO	none	close	0	intact	none	none	0	0	NaN	NaN	NaN	none	none	NaN	0	0
407	1	204	1	none	0.5	NaN	green	0	right	right	GLO	none	close	0	intact	none	none	0	0	NaN	NaN	NaN	none	none	NaN	0	0
407	1	205	1	none	0.5	NaN	red	1	left	left	GLO	none	far	0	intact	none	none	0	0	NaN	NaN	NaN	none	none	NaN	0	0
407	1	206	1	none	0.5	NaN	yellow	1	down	down	GLO	none	far	0	intact	none	none	0	0	NaN	NaN	NaN	none	none	NaN	0	0
407	1	207	1	none	0.5	NaN	green	0	right	right	GLO	none	close	0	intact	none	none	0	0	NaN	NaN	NaN	none	none	NaN	0	0
407	1	208	1	none	0.5	NaN	red	0	down	down	GLO	none	far	0	intact	none	none	0	0	NaN	NaN	NaN	none	none	NaN	0	0
407	1	209	1	none	0.5	NaN	yellow	1	right	right	GLO	none	far	0	intact	none	none	0	0	NaN	NaN	NaN	none	none	NaN	0	0
407	1	210	1	none	0.5	NaN	yellow	0	left	left	GLO	none	far	0	intact	none	none	0	0	NaN	NaN	NaN	none	none	NaN	0	0
407	1	211	1	none	0.5	NaN	green	0	right	right	GLO	none	close	0	intact	none	none	0	0	NaN	NaN	NaN	none	none	NaN	0	0
407	1	212	1	none	0.5	NaN	blue	1	left	left	GLO	none	far	0	intact	none	none	0	0	NaN	NaN	NaN	none	none	NaN	0	0
407	1	213	1	none	0.5	NaN	yellow	0	left	left	GLO	none	far	0	intact	none	none	0	0	NaN	NaN	NaN	none	none	NaN	0	0
407	1	214	1	none	0.5	NaN	yellow	0	left	left	GLO	none	close	0	intact	none	none	0	0	NaN	NaN	NaN	none	none	NaN	0	0
407	1	215	1	none	0.5	NaN	blue	1	down	down	GLO	none	far	0	intact	none	none	0	0	NaN	NaN	NaN	none	none	NaN	0	0
407	1	216	1	none	0.5	NaN	green	1	left	left	GLO	none	close	0	intact	none	none	0	0	NaN	NaN	NaN	none	none	NaN	0	0
407	1	217	1	none	0.5	NaN	red	0	down	down	GLO	none	far	0	intact	none	none	0	0	NaN	NaN	NaN	none	none	NaN	0	0
407	1	218	1	none	0.5	NaN	yellow	1	down	down	GLO	none	far	0	intact	none	none	0	0	NaN	NaN	NaN	none	none	NaN	0	0
407	1	219	1	none	0.5	NaN	red	0	down	down	GLO	none	far	0	intact	none	none	0	0	NaN	NaN	NaN	none	none	NaN	0	0
407	1	220	1	none	0.5	NaN	yellow	1	up	up	GLO	none	far	0	intact	none	none	0	0	NaN	NaN	NaN	none	none	NaN	0	0
407	1	221	1	none	0.5	NaN	yellow	0	left	left	GLO	none	far	0	intact	none	none	0	0	NaN	NaN	NaN	none	none	NaN	0	0
407	1	222	1	none	0.5	NaN	green	0	right	right	GLO	none	far	0	intact	none	none	0	0	NaN	NaN	NaN	none	none	NaN	0	0
407	1	223	1	none	0.5	NaN	yellow	1	down	down	GLO	none	close	0	intact	none	none	0	0	NaN	NaN	NaN	none	none	NaN	0	0
407	1	224	1	none	0.5	NaN	green	0	right	right	GLO	none	close	0	intact	none	none	0	0	NaN	NaN	NaN	none	none	NaN	0	0
407	1	225	1	none	0.5	NaN	red	1	up	up	GLO	none	far	0	intact	none	none	0	0	NaN	NaN	NaN	none	none	NaN	0	0
407	1	226	1	none	0.5	NaN	blue	1	left	left	GLO	none	close	0	intact	none	none	0	0	NaN	NaN	NaN	none	none	NaN	0	0
407	1	227	1	none	0.5	NaN	green	1	left	left	GLO	none	close	0	intact	none	none	0	0	NaN	NaN	NaN	none	none	NaN	0	0
407	1	228	1	none	0.5	NaN	yellow	0	left	left	GLO	none	close	0	intact	none	none	0	0	NaN	NaN	NaN	none	none	NaN	0	0
407	1	229	1	none	0.5	NaN	green	0	right	right	GLO	none	close	0	intact	none	none	0	0	NaN	NaN	NaN	none	none	NaN	0	0
407	1	230	1	none	0.5	NaN	blue	1	left	left	GLO	none	close	0	intact	none	none	0	0	NaN	NaN	NaN	none	none	NaN	0	0
407	1	231	1	none	0.5	NaN	blue	0	up	up	GLO	none	far	0	intact	none	none	0	0	NaN	NaN	NaN	none	none	NaN	0	0
407	1	232	1	none	0.5	NaN	green	1	down	down	GLO	none	far	0	intact	none	none	0	0	NaN	NaN	NaN	none	none	NaN	0	0
407	1	233	1	none	0.5	NaN	yellow	1	right	right	GLO	none	far	0	intact	none	none	0	0	NaN	NaN	NaN	none	none	NaN	0	0
407	1	234	1	none	0.5	NaN	blue	1	left	left	GLO	none	close	0	intact	none	none	0	0	NaN	NaN	NaN	none	none	NaN	0	0
407	1	235	1	none	0.5	NaN	yellow	0	left	left	GLO	none	far	0	intact	none	none	0	0	NaN	NaN	NaN	none	none	NaN	0	0
407	1	236	1	none	0.5	NaN	blue	1	left	left	GLO	none	close	0	intact	none	none	0	0	NaN	NaN	NaN	none	none	NaN	0	0
407	1	237	1	none	0.5	NaN	blue	1	left	left	GLO	none	close	0	intact	none	none	0	0	NaN	NaN	NaN	none	none	NaN	0	0
407	1	238	1	none	0.5	NaN	yellow	0	left	left	GLO	none	far	0	intact	none	none	0	0	NaN	NaN	NaN	none	none	NaN	0	0
407	1	239	1	none	0.5	NaN	blue	0	up	up	GLO	none	far	0	intact	none	none	0	0	NaN	NaN	NaN	none	none	NaN	0	0
407	1	240	1	none	0.5	NaN	green	1	left	left	GLO	none	far	0	intact	none	none	0	0	NaN	NaN	NaN	none	none	NaN	0	0
407	1	241	1	none	0.5	NaN	red	1	left	left	GLO	none	far	0	intact	none	none	0	0	NaN	NaN	NaN	none	none	NaN	0	0
407	1	242	1	none	0.5	NaN	blue	1	down	down	GLO	none	far	0	intact	none	none	0	0	NaN	NaN	NaN	none	none	NaN	0	0
407	1	243	1	none	0.5	NaN	red	0	down	down	GLO	none	close	0	intact	none	none	0	0	NaN	NaN	NaN	none	none	NaN	0	0
407	1	244	1	none	0.5	NaN	blue	1	right	right	GLO	none	far	0	intact	none	none	0	0	NaN	NaN	NaN	none	none	NaN	0	0
407	1	245	1	none	0.5	NaN	yellow	0	left	left	GLO	none	close	0	intact	none	none	0	0	NaN	NaN	NaN	none	none	NaN	0	0
407	1	246	1	none	0.5	NaN	yellow	0	left	left	GLO	none	close	0	intact	none	none	0	0	NaN	NaN	NaN	none	none	NaN	0	0
407	1	247	1	none	0.5	NaN	yellow	1	down	down	GLO	none	close	0	intact	none	none	0	0	NaN	NaN	NaN	none	none	NaN	0	0
407	1	248	1	none	0.5	NaN	green	1	left	left	GLO	none	close	0	intact	none	none	0	0	NaN	NaN	NaN	none	none	NaN	0	0
407	1	249	1	none	0.5	NaN	red	1	left	left	GLO	none	close	0	intact	none	none	0	0	NaN	NaN	NaN	none	none	NaN	0	0
407	1	250	1	none	0.5	NaN	yellow	0	left	left	GLO	none	far	0	intact	none	none	0	0	NaN	NaN	NaN	none	none	NaN	0	0
407	1	251	1	none	0.5	NaN	green	0	right	right	GLO	none	far	0	intact	none	none	0	0	NaN	NaN	NaN	none	none	NaN	0	0
407	1	252	1	none	0.5	NaN	blue	1	left	left	GLO	none	close	0	intact	none	none	0	0	NaN	NaN	NaN	none	none	NaN	0	0
407	1	253	1	none	0.5	NaN	red	0	down	down	GLO	none	close	0	intact	none	none	0	0	NaN	NaN	NaN	none	none	NaN	0	0
407	1	254	1	none	0.5	NaN	yellow	1	right	right	GLO	none	close	0	intact	none	none	0	0	NaN	NaN	NaN	none	none	NaN	0	0
407	1	255	1	none	0.5	NaN	yellow	0	left	left	GLO	none	far	0	intact	none	none	0	0	NaN	NaN	NaN	none	none	NaN	0	0
407	1	256	1	none	0.5	NaN	green	1	up	up	GLO	none	close	0	intact	none	none	0	0	NaN	NaN	NaN	none	none	NaN	0	0
407	1	257	1	none	0.5	NaN	red	0	down	down	GLO	none	far	0	intact	none	none	0	0	NaN	NaN	NaN	none	none	NaN	0	0
407	1	258	1	none	0.5	NaN	blue	1	right	right	GLO	none	far	0	intact	none	none	0	0	NaN	NaN	NaN	none	none	NaN	0	0
407	1	259	1	none	0.5	NaN	blue	0	up	up	GLO	none	close	0	intact	none	none	0	0	NaN	NaN	NaN	none	none	NaN	0	0
407	1	260	1	none	0.5	NaN	yellow	1	right	right	GLO	none	close	0	intact	none	none	0	0	NaN	NaN	NaN	none	none	NaN	0	0
407	1	261	1	none	0.5	NaN	green	1	left	left	GLO	none	far	0	intact	none	none	0	0	NaN	NaN	NaN	none	none	NaN	0	0
407	1	262	1	none	0.5	NaN	green	1	left	left	GLO	none	close	0	intact	none	none	0	0	NaN	NaN	NaN	none	none	NaN	0	0
407	1	263	1	none	0.5	NaN	green	1	left	left	GLO	none	far	0	intact	none	none	0	0	NaN	NaN	NaN	none	none	NaN	0	0
407	1	264	1	none	0.5	NaN	green	0	right	right	GLO	none	far	0	intact	none	none	0	0	NaN	NaN	NaN	none	none	NaN	0	0
407	1	265	1	none	0.5	NaN	blue	1	right	right	GLO	none	far	0	intact	none	none	0	0	NaN	NaN	NaN	none	none	NaN	0	0
407	1	266	1	none	0.5	NaN	blue	1	right	right	GLO	none	close	0	intact	none	none	0	0	NaN	NaN	NaN	none	none	NaN	0	0
407	1	267	1	none	0.5	NaN	yellow	1	up	up	GLO	none	far	0	intact	none	none	0	0	NaN	NaN	NaN	none	none	NaN	0	0
407	1	268	1	none	0.5	NaN	yellow	1	right	right	GLO	none	far	0	intact	none	none	0	0	NaN	NaN	NaN	none	none	NaN	0	0
407	1	269	1	none	0.5	NaN	green	0	right	right	GLO	none	far	0	intact	none	none	0	0	NaN	NaN	NaN	none	none	NaN	0	0
407	1	270	1	none	0.5	NaN	green	0	right	right	GLO	none	far	0	intact	none	none	0	0	NaN	NaN	NaN	none	none	NaN	0	0
407	1	271	1	none	0.5	NaN	green	0	right	right	GLO	none	close	0	intact	none	none	0	0	NaN	NaN	NaN	none	none	NaN	0	0
407	1	272	1	none	0.5	NaN	red	0	down	down	GLO	none	far	0	intact	none	none	0	0	NaN	NaN	NaN	none	none	NaN	0	0
407	1	273	1	none	0.5	NaN	green	1	down	down	GLO	none	far	0	intact	none	none	0	0	NaN	NaN	NaN	none	none	NaN	0	0
407	1	274	1	none	0.5	NaN	red	1	up	up	GLO	none	far	0	intact	none	none	0	0	NaN	NaN	NaN	none	none	NaN	0	0
407	1	275	1	none	0.5	NaN	green	0	right	right	GLO	none	close	0	intact	none	none	0	0	NaN	NaN	NaN	none	none	NaN	0	0
407	1	276	1	none	0.5	NaN	green	1	up	up	GLO	none	close	0	intact	none	none	0	0	NaN	NaN	NaN	none	none	NaN	0	0
407	1	277	1	none	0.5	NaN	green	0	right	right	GLO	none	close	0	intact	none	none	0	0	NaN	NaN	NaN	none	none	NaN	0	0
407	2	1	1	self	1.5	1.51698	yellow	1	right	right	GLO	right	far	1	intact	intact	32b66b3c-9f3a-4856-9278-87ca4048d48e_fps_avg_aud.mp4	1	17800	102.877	79.749	61	left	yellow	1	0	0
407	2	2	1	self	1.5	NaN	yellow	1	up	up	GLO	none	close	1	intact	intact	592c03b4-010b-4f30-8521-fbf254e827b0_fps_avg_aud.mp4	0	0	NaN	NaN	NaN	none	none	NaN	0	0
407	2	3	1	self	1.5	NaN	red	0	down	down	GLO	none	far	1	intact	intact	b2f11719-a2c9-405c-93a2-abd13a835201_fps_avg_aud.mp4	0	0	NaN	NaN	NaN	none	none	NaN	0	0
407	2	4	1	self	1.5	NaN	blue	0	up	up	GLO	none	close	1	intact	intact	ea69ea96-da66-4080-96c0-6671ca9fd051_fps_avg_aud.mp4	0	0	NaN	NaN	NaN	none	none	NaN	0	0
407	2	5	1	self	1.5	NaN	blue	1	down	down	GLO	none	close	1	intact	intact	Otober_11_2016_fps_avg_aud.mp4	0	0	NaN	NaN	NaN	none	none	NaN	0	0
407	2	6	1	self	1.5	NaN	red	0	down	down	GLO	none	far	1	intact	intact	2ad8c2cc-f109-45c5-925b-f1af257730e3_fps_avg_aud.mp4	0	0	NaN	NaN	NaN	none	none	NaN	0	0
407	2	7	1	self	1.5	NaN	blue	1	left	left	GLO	none	close	1	intact	intact	cfead01b-2f72-4131-8069-3f2052f352e3_fps_avg_aud.mp4	0	0	NaN	NaN	NaN	none	none	NaN	0	0
407	2	8	1	self	1.5	NaN	green	0	right	right	GLO	none	close	1	intact	intact	may_28_2015_fps_avg_aud.mp4	0	0	NaN	NaN	NaN	none	none	NaN	0	0
407	2	9	1	self	1.5	NaN	green	1	left	left	GLO	none	far	1	intact	intact	bd6f74c6-a8d8-4bf6-bf1e-d008c6733318_fps_avg_aud.mp4	0	0	NaN	NaN	NaN	none	none	NaN	0	0
407	2	10	1	self	1.5	NaN	green	1	down	down	GLO	none	far	1	intact	intact	18d4ec1c-7f36-4828-8594-27b6bfd3c309_fps_avg_aud.mp4	0	0	NaN	NaN	NaN	none	none	NaN	0	0
407	2	11	1	self	1.5	NaN	blue	1	left	left	GLO	none	far	1	intact	intact	d59b9ee2-e1af-4171-a59e-9daefced695e_fps_avg_aud.mp4	0	0	NaN	NaN	NaN	none	none	NaN	0	0
407	2	12	1	self	1.5	NaN	blue	1	left	left	GLO	none	close	1	intact	intact	023396f6-bdb5-478d-a725-e32d4f6b7be9_fps_avg_aud.mp4	0	0	NaN	NaN	NaN	none	none	NaN	0	0
407	2	13	1	self	1.5	NaN	blue	1	down	down	GLO	none	far	1	intact	intact	Jan10_fps_avg_aud.mp4	0	0	NaN	NaN	NaN	none	none	NaN	0	0
407	2	14	1	self	1.5	NaN	red	0	down	down	GLO	none	close	1	intact	intact	f88c90ff-41f4-4220-a305-426fa931932f_fps_avg_aud.mp4	0	0	NaN	NaN	NaN	none	none	NaN	0	0
407	2	15	1	self	1.5	NaN	green	1	left	left	GLO	none	far	1	intact	intact	b55ab065-b20b-4b90-b1fd-ca55d667b668_fps_avg_aud.mp4	0	0	NaN	NaN	NaN	none	none	NaN	0	0
407	2	16	1	self	1.5	NaN	blue	0	up	up	GLO	none	far	1	intact	intact	bbadcc83-10bb-4a2d-a28a-1d6b44f33770_fps_avg_aud.mp4	0	0	NaN	NaN	NaN	none	none	NaN	0	0
407	2	17	1	self	1.5	NaN	blue	0	up	up	GLO	none	far	1	intact	intact	17cb4c50-a413-43aa-8ef1-30df975b04f4_fps_avg_aud.mp4	0	0	NaN	NaN	NaN	none	none	NaN	0	0
407	2	18	1	self	1.5	NaN	blue	0	up	up	GLO	none	close	1	intact	intact	4492b756-14ac-4694-8c38-fa7503b864e1_fps_avg_aud.mp4	0	0	NaN	NaN	NaN	none	none	NaN	0	0
407	2	19	1	self	1.5	NaN	yellow	0	left	left	GLO	none	close	1	intact	intact	b442d744-edd6-478c-94f1-be50e05465cc_fps_avg_aud.mp4	0	0	NaN	NaN	NaN	none	none	NaN	0	0
407	2	20	1	self	1.5	NaN	red	1	up	up	GLO	none	far	1	intact	intact	c6481c95-a5c1-4e4c-bc78-4d2184182dd4_fps_avg_aud.mp4	0	0	NaN	NaN	NaN	none	none	NaN	0	0
407	2	21	1	self	1.5	NaN	green	0	right	right	GLO	none	close	1	intact	intact	ede4a096-21dc-4ed4-9b28-6df0a7f6fe6b_fps_avg_aud.mp4	0	0	NaN	NaN	NaN	none	none	NaN	0	0
407	2	22	1	self	1.5	NaN	blue	0	up	up	GLO	none	close	1	intact	intact	may_2015_fps_avg_aud.mp4	0	0	NaN	NaN	NaN	none	none	NaN	0	0
407	2	23	1	self	1.5	NaN	yellow	0	left	left	GLO	none	far	1	intact	intact	Jan20_fps_avg_aud.mp4	0	0	NaN	NaN	NaN	none	none	NaN	0	0
407	2	24	1	self	1.5	NaN	green	0	right	right	GLO	none	close	1	intact	intact	bfb38b58-a56a-427a-a233-3b6663beed7c_fps_avg_aud.mp4	0	0	NaN	NaN	NaN	none	none	NaN	0	0
407	2	25	1	self	1.5	NaN	blue	0	up	up	GLO	none	close	1	intact	intact	May15_fps_avg_aud.mp4	0	0	NaN	NaN	NaN	none	none	NaN	0	0
407	2	26	1	self	1.5	NaN	red	1	up	up	GLO	none	close	1	intact	intact	b35409aa-6325-4736-bc0d-526af5b26b83_fps_avg_aud.mp4	0	0	NaN	NaN	NaN	none	none	NaN	0	0
407	2	27	1	self	1.5	NaN	green	0	right	right	GLO	none	close	1	intact	intact	jun14_fps_avg_aud.mp4	0	0	NaN	NaN	NaN	none	none	NaN	0	0
407	2	28	1	self	1.5	NaN	yellow	0	left	left	GLO	none	far	1	intact	intact	Dec12_fps_avg_aud.mp4	0	0	NaN	NaN	NaN	none	none	NaN	0	0
407	2	29	1	self	1.5	NaN	blue	1	down	down	GLO	none	close	1	intact	intact	jun13_fps_avg_aud.mp4	0	0	NaN	NaN	NaN	none	none	NaN	0	0
407	2	30	1	self	1.5	NaN	blue	0	up	up	GLO	none	close	1	intact	intact	520ef496-2bf3-4f3e-8a54-00e0428b126c_fps_avg_aud.mp4	0	0	NaN	NaN	NaN	none	none	NaN	0	0
407	2	31	1	self	1.5	NaN	yellow	0	left	left	GLO	none	far	1	intact	intact	ea6675d4-3684-48c3-9bd0-c32d38c48c9e_fps_avg_aud.mp4	0	0	NaN	NaN	NaN	none	none	NaN	0	0
407	2	32	1	self	1.5	NaN	green	1	down	down	GLO	none	far	1	intact	intact	Mar19_fps_avg_aud.mp4	0	0	NaN	NaN	NaN	none	none	NaN	0	0
407	2	33	1	self	1.5	NaN	green	1	up	up	GLO	none	close	1	intact	intact	Dec11_fps_avg_aud.mp4	0	0	NaN	NaN	NaN	none	none	NaN	0	0
407	2	34	1	self	1.5	NaN	green	0	right	right	GLO	none	far	1	intact	intact	690b1209-9514-4bd6-9698-3a990594f223_fps_avg_aud.mp4	0	0	NaN	NaN	NaN	none	none	NaN	0	0
407	2	35	1	self	1.5	NaN	blue	0	up	up	GLO	none	close	1	intact	intact	9bd7a199-78f1-4f14-9fde-3a11c0ebd236_fps_avg_aud.mp4	0	0	NaN	NaN	NaN	none	none	NaN	0	0
407	2	36	1	self	1.5	NaN	yellow	0	left	left	GLO	none	close	1	intact	intact	c939d2dd-f401-4cdf-bab0-fe7457cad0a4_fps_avg_aud.mp4	0	0	NaN	NaN	NaN	none	none	NaN	0	0
407	2	37	1	self	1.5	NaN	yellow	1	right	right	GLO	none	close	1	intact	intact	May_30_2016_fps_avg_aud.mp4	0	0	NaN	NaN	NaN	none	none	NaN	0	0
407	2	38	1	self	1.5	NaN	green	1	up	up	GLO	none	close	1	intact	intact	98afb848-1bd2-46a6-89c7-32d60d6d1855_fps_avg_aud.mp4	0	0	NaN	NaN	NaN	none	none	NaN	0	0
407	2	39	1	self	1.5	NaN	green	0	right	right	GLO	none	close	1	intact	intact	June_2016_(1)_fps_avg_aud.mp4	0	0	NaN	NaN	NaN	none	none	NaN	0	0
407	2	40	1	self	1.5	NaN	red	0	down	down	GLO	none	far	1	intact	intact	8021b6b2-93f5-4b8a-981e-576768624e6e_fps_avg_aud.mp4	0	0	NaN	NaN	NaN	none	none	NaN	0	0
407	2	41	1	self	1.5	NaN	blue	1	down	down	GLO	none	far	1	intact	intact	January_2016_(3)_fps_avg_aud.mp4	0	0	NaN	NaN	NaN	none	none	NaN	0	0
407	2	42	1	self	1.5	NaN	yellow	1	right	right	GLO	none	far	1	intact	intact	33d05c43-ee7c-4877-9419-344c4009c91e_fps_avg_aud.mp4	0	0	NaN	NaN	NaN	none	none	NaN	0	0
407	2	43	1	self	1.5	NaN	blue	0	up	up	GLO	none	close	1	intact	intact	9874ea15-f388-4d7d-ae5d-51013a69fee3_fps_avg_aud.mp4	0	0	NaN	NaN	NaN	none	none	NaN	0	0
407	2	44	1	self	1.5	NaN	yellow	1	right	right	GLO	none	far	1	intact	intact	240bdf76-9a30-49ea-9534-079281412955_fps_avg_aud.mp4	0	0	NaN	NaN	NaN	none	none	NaN	0	0
407	2	45	1	self	1.5	NaN	green	0	right	right	GLO	none	close	1	intact	intact	0602c0a8-082a-4bca-9f5b-70795017698f_fps_avg_aud.mp4	0	0	NaN	NaN	NaN	none	none	NaN	0	0
407	2	46	1	self	1.5	NaN	blue	0	up	up	GLO	none	far	1	intact	intact	b4701d82-e6b3-47a6-bf5c-596818c9d778_fps_avg_aud.mp4	0	0	NaN	NaN	NaN	none	none	NaN	0	0
407	2	47	1	self	1.5	NaN	green	0	right	right	GLO	none	far	1	intact	intact	Mar21_fps_avg_aud.mp4	0	0	NaN	NaN	NaN	none	none	NaN	0	0
407	2	48	1	self	1.5	NaN	green	1	up	up	GLO	none	close	1	intact	intact	Nov24_fps_avg_aud.mp4	0	0	NaN	NaN	NaN	none	none	NaN	0	0
407	2	49	1	self	1.5	NaN	green	1	down	down	GLO	none	close	1	intact	intact	f22090a0-ec04-4dfd-99ca-7810b9650ec8_fps_avg_aud.mp4	0	0	NaN	NaN	NaN	none	none	NaN	0	0
407	2	50	1	self	1.5	NaN	yellow	1	right	right	GLO	none	close	1	intact	intact	8fc730b2-0fc1-4125-9e0e-c9ed1f9ab58a_fps_avg_aud.mp4	0	0	NaN	NaN	NaN	none	none	NaN	0	0
407	2	51	1	self	1.5	NaN	red	0	down	down	GLO	none	far	1	intact	intact	Nov7_fps_avg_aud.mp4	0	0	NaN	NaN	NaN	none	none	NaN	0	0
407	2	52	1	self	1.5	NaN	blue	0	up	up	GLO	none	far	1	intact	intact	november_5_2015_fps_avg_aud.mp4	0	0	NaN	NaN	NaN	none	none	NaN	0	0
407	2	53	1	self	1.5	NaN	green	0	right	right	GLO	none	close	1	intact	intact	b151d8a6-cbea-4f58-ab0f-6c21bc545c88_fps_avg_aud.mp4	0	0	NaN	NaN	NaN	none	none	NaN	0	0
407	2	54	1	self	1.5	NaN	yellow	0	left	left	GLO	none	far	1	intact	intact	61be81ef-2338-498f-a09a-fd23aea0f3ec_fps_avg_aud.mp4	0	0	NaN	NaN	NaN	none	none	NaN	0	0
407	2	55	1	self	1.5	NaN	blue	0	up	up	GLO	none	close	1	intact	intact	3787d5d7-bc65-4720-b93c-344c8ca85f75_fps_avg_aud.mp4	0	0	NaN	NaN	NaN	none	none	NaN	0	0
407	2	56	1	self	1.5	NaN	green	0	right	right	GLO	none	close	1	intact	intact	Jan31_fps_avg_aud.mp4	0	0	NaN	NaN	NaN	none	none	NaN	0	0
407	2	57	1	self	1.5	NaN	green	1	up	up	GLO	none	close	1	intact	intact	e57a35d6-39b7-4b9c-a4a1-844e0bebd3c1_fps_avg_aud.mp4	0	0	NaN	NaN	NaN	none	none	NaN	0	0
407	2	58	1	self	1.5	NaN	yellow	0	left	left	GLO	none	far	1	intact	intact	ea8c6916-8b70-4539-be72-29487b43dc07_fps_avg_aud.mp4	0	0	NaN	NaN	NaN	none	none	NaN	0	0
407	2	59	1	self	1.5	NaN	green	1	up	up	GLO	none	far	1	intact	intact	b5bcd3a2-267e-4413-b730-c3121b8457ab_fps_avg_aud.mp4	0	0	NaN	NaN	NaN	none	none	NaN	0	0
407	2	60	1	self	1.5	NaN	red	1	left	left	GLO	none	far	1	intact	intact	a286ef4d-f7bf-4cc1-b7c2-912b53e8ea4a_fps_avg_aud.mp4	0	0	NaN	NaN	NaN	none	none	NaN	0	0
407	2	61	1	self	1.5	NaN	yellow	0	left	left	GLO	none	far	1	intact	intact	b8f7a383-ba3e-49db-977d-18cbd8702864_fps_avg_aud.mp4	0	0	NaN	NaN	NaN	none	none	NaN	0	0
407	2	62	1	self	1.5	NaN	green	1	left	left	GLO	none	far	1	intact	intact	8fa6e47a-355a-4a52-986e-ef49886619e0_fps_avg_aud.mp4	0	0	NaN	NaN	NaN	none	none	NaN	0	0
407	2	63	1	self	1.5	NaN	yellow	1	up	up	GLO	none	far	1	intact	intact	Dec23_fps_avg_aud.mp4	0	0	NaN	NaN	NaN	none	none	NaN	0	0
407	2	64	1	self	1.5	NaN	blue	1	left	left	GLO	none	close	1	intact	intact	637444dd-82ca-432a-beab-7eb721de8b71_fps_avg_aud.mp4	0	0	NaN	NaN	NaN	none	none	NaN	0	0
407	2	65	1	self	1.5	NaN	yellow	1	up	up	GLO	none	close	1	intact	intact	74863169-b4eb-4472-bb27-c309a4fed0aa_fps_avg_aud.mp4	0	0	NaN	NaN	NaN	none	none	NaN	0	0
407	2	66	1	self	1.5	NaN	yellow	1	right	right	GLO	none	close	1	intact	intact	July_2015_(2)_fps_avg_aud.mp4	0	0	NaN	NaN	NaN	none	none	NaN	0	0
407	2	67	1	self	1.5	NaN	red	0	down	down	GLO	none	close	1	intact	intact	June_17_2015_fps_avg_aud.mp4	0	0	NaN	NaN	NaN	none	none	NaN	0	0
407	2	68	1	self	1.5	NaN	green	1	up	up	GLO	none	close	1	intact	intact	1affd9f8-27af-4e8b-9985-5f3abbee6931_fps_avg_aud.mp4	0	0	NaN	NaN	NaN	none	none	NaN	0	0
407	2	69	1	self	1.5	NaN	green	0	right	right	GLO	none	far	1	intact	intact	f08bb9b7-0409-482c-9084-de15481ab2b3_fps_avg_aud.mp4	0	0	NaN	NaN	NaN	none	none	NaN	0	0
407	2	70	1	self	1.5	NaN	red	1	right	right	GLO	none	far	1	intact	intact	September_2016_(3)_fps_avg_aud.mp4	0	0	NaN	NaN	NaN	none	none	NaN	0	0
407	2	71	1	self	1.5	NaN	yellow	1	down	down	GLO	none	far	1	intact	intact	21ca1f40-8184-4506-9096-1849a40e04e2_fps_avg_aud.mp4	0	0	NaN	NaN	NaN	none	none	NaN	0	0
407	2	72	1	self	1.5	NaN	blue	1	left	left	GLO	none	far	1	intact	intact	0096623f-bd93-48df-96f9-85a0a749a586_fps_avg_aud.mp4	0	0	NaN	NaN	NaN	none	none	NaN	0	0
407	2	73	1	self	1.5	NaN	red	0	down	down	GLO	none	close	1	intact	intact	33a33f4c-72c6-457d-828e-a576d3e3a8e3_fps_avg_aud.mp4	0	0	NaN	NaN	NaN	none	none	NaN	0	0
407	2	74	1	self	1.5	NaN	blue	1	left	left	GLO	none	close	1	intact	intact	ec93e301-9c09-4bba-94b5-edac54ba0e07_fps_avg_aud.mp4	0	0	NaN	NaN	NaN	none	none	NaN	0	0
407	2	75	1	self	1.5	NaN	red	0	down	down	GLO	none	far	1	intact	intact	July31_fps_avg_aud.mp4	0	0	NaN	NaN	NaN	none	none	NaN	0	0
407	2	76	1	self	1.5	NaN	green	1	up	up	GLO	none	far	1	intact	intact	May11_fps_avg_aud.mp4	0	0	NaN	NaN	NaN	none	none	NaN	0	0
407	2	77	1	self	1.5	NaN	red	0	down	down	GLO	none	far	1	intact	intact	1b336470-7a10-4cc7-aee4-3a5e6e6e551e_fps_avg_aud.mp4	0	0	NaN	NaN	NaN	none	none	NaN	0	0
407	2	78	1	self	1.5	NaN	yellow	1	down	down	GLO	none	far	1	intact	intact	1ad967f4-1728-4eb7-88a5-9d6ad488c3b4_fps_avg_aud.mp4	0	0	NaN	NaN	NaN	none	none	NaN	0	0
407	2	79	1	self	1.5	NaN	green	1	down	down	GLO	none	close	1	intact	intact	f001cded-b985-4905-a6ac-c1793ff8fab2_fps_avg_aud.mp4	0	0	NaN	NaN	NaN	none	none	NaN	0	0
407	2	80	1	self	1.5	NaN	blue	1	right	right	GLO	none	far	1	intact	intact	315e95e4-d9b0-4497-8992-fa67c8970229_fps_avg_aud.mp4	0	0	NaN	NaN	NaN	none	none	NaN	0	0
407	2	81	1	self	1.5	NaN	blue	0	up	up	GLO	none	close	1	intact	intact	06166668-1aac-4d03-b242-d4a5635a694b_fps_avg_aud.mp4	0	0	NaN	NaN	NaN	none	none	NaN	0	0
407	2	82	1	self	1.5	NaN	yellow	0	left	left	GLO	none	far	1	intact	intact	c4c0c443-720b-4afe-955c-b60460b3fa87_fps_avg_aud.mp4	0	0	NaN	NaN	NaN	none	none	NaN	0	0
407	2	83	1	self	1.5	NaN	blue	1	right	right	GLO	none	far	1	intact	intact	Jul10_fps_avg_aud.mp4	0	0	NaN	NaN	NaN	none	none	NaN	0	0
407	2	84	1	self	1.5	NaN	blue	0	up	up	GLO	none	close	1	intact	intact	Dec4_fps_avg_aud.mp4	0	0	NaN	NaN	NaN	none	none	NaN	0	0
407	2	85	1	self	1.5	NaN	green	0	right	right	GLO	none	far	1	intact	intact	Oct7_fps_avg_aud.mp4	0	0	NaN	NaN	NaN	none	none	NaN	0	0
407	2	86	1	self	1.5	NaN	blue	1	left	left	GLO	none	close	1	intact	intact	e2244423-2494-4cef-96da-ceaa115b3e8d_fps_avg_aud.mp4	0	0	NaN	NaN	NaN	none	none	NaN	0	0
407	2	87	1	self	1.5	NaN	blue	1	right	right	GLO	none	close	1	intact	intact	23c8ed33-90c4-4605-8822-6270c3a6ca34_fps_avg_aud.mp4	0	0	NaN	NaN	NaN	none	none	NaN	0	0
407	2	88	1	self	1.5	NaN	yellow	0	left	left	GLO	none	far	1	intact	intact	cabd6947-9e88-4e9a-90fa-985b610f3784_fps_avg_aud.mp4	0	0	NaN	NaN	NaN	none	none	NaN	0	0
407	2	89	1	self	1.5	NaN	yellow	1	up	up	GLO	none	far	1	intact	intact	fc42fffc-beb2-426f-85f8-fe9f11671486_fps_avg_aud.mp4	0	0	NaN	NaN	NaN	none	none	NaN	0	0
407	2	90	1	self	1.5	NaN	blue	0	up	up	GLO	none	far	1	intact	intact	bca3f84c-663e-49dd-9b23-05262dbf1e96_fps_avg_aud.mp4	0	0	NaN	NaN	NaN	none	none	NaN	0	0
407	2	91	1	self	1.5	NaN	yellow	0	left	left	GLO	none	far	1	intact	intact	September_2016_fps_avg_aud.mp4	0	0	NaN	NaN	NaN	none	none	NaN	0	0
407	2	92	1	self	1.5	NaN	blue	1	left	left	GLO	none	far	1	intact	intact	May18_fps_avg_aud.mp4	0	0	NaN	NaN	NaN	none	none	NaN	0	0
407	2	93	1	self	1.5	NaN	green	1	left	left	GLO	none	far	1	intact	intact	december_2015_(4)_fps_avg_aud.mp4	0	0	NaN	NaN	NaN	none	none	NaN	0	0
407	3	1	1	auto	1.5	1.51686	yellow	0	left	left	GLO	left	far	0	intact	none	none	0	0	0.793631	0	1	left	yellow	1	0	0
407	3	2	1	auto	1.5	1.51676	yellow	1	down	down	GLO	right	close	0	intact	none	none	0	0	0.816371	0	1	left	yellow	1	0	0
407	3	3	1	auto	1.5	1.51631	red	0	down	down	GLO	left	far	0	intact	none	none	0	0	1.2819	0	1	down	red	1	0	0
407	3	4	1	auto	1.5	1.51638	yellow	1	down	down	GLO	left	close	0	intact	none	none	0	0	1.40045	0	1	left	yellow	1	0	0
407	3	5	1	auto	1.5	1.5162	red	0	down	down	GLO	left	close	1	intact	intact	8b186ca3-65a3-4740-8611-404063ae0ec7_fps_avg_aud.mp4	1	24	0.874928	0.0853477	2	down	red	1	0	0
407	3	6	1	auto	1.5	1.51739	blue	1	left	left	GLO	right	close	0	intact	none	none	0	0	1.15013	0	1	up	blue	1	0	0
407	3	7	1	auto	1.5	1.51642	green	0	right	right	GLO	right	close	0	intact	none	none	0	0	1.22411	0	1	right	green	1	0	0
407	3	8	1	auto	1.5	1.51635	red	0	down	down	GLO	right	far	0	intact	none	none	0	0	1.23209	0	1	down	red	1	0	0
407	3	9	1	auto	1.5	1.51604	green	1	down	down	GLO	left	close	1	intact	intact	b11b47e5-c9ce-4ff0-9f69-98698858b2d8_fps_avg_aud.mp4	1	0	0.725252	0	1	down	red	0	0	0
407	3	10	1	auto	1.5	1.51712	green	0	right	right	GLO	left	far	1	intact	intact	may_28_2015_fps_avg_aud.mp4	1	0	0.858194	0	1	right	green	1	0	0
407	3	11	1	auto	1.5	1.51703	red	0	down	down	GLO	left	far	1	intact	intact	960000ea-ab44-4258-8824-51f8fdf7a806_fps_avg_aud.mp4	1	12	1.00742	0.044132	2	down	red	1	0	0
407	3	12	1	auto	0.5	0.516501	blue	0	up	up	GLO	right	close	1	intact	intact	5b4edd74-dc10-4920-b508-c0b2f21238c3_fps_avg_aud.mp4	1	0	1.60304	0	1	up	blue	1	0	0
407	3	13	1	auto	0.5	0.517069	blue	1	left	left	GLO	right	close	0	intact	none	none	0	0	1.11531	0	1	up	blue	1	0	0
407	3	14	1	auto	0.5	0.515825	red	1	up	up	GLO	left	close	1	intact	intact	d908683d-e7f6-43aa-ac1d-27222b281fc0_fps_avg_aud.mp4	1	0	0.907733	0	1	down	red	1	0	0
407	3	15	1	auto	0.5	0.516757	green	0	right	right	GLO	right	close	0	intact	none	none	0	0	1.71708	0	1	right	green	1	0	0
407	3	16	1	auto	0.5	0.517117	yellow	1	up	up	GLO	left	far	1	intact	intact	4d617426-ab8c-4125-9dcf-178529ca54a1_fps_avg_aud.mp4	1	0	0.732367	0	1	left	yellow	1	0	0
407	3	17	1	auto	0.5	0.517867	yellow	0	left	left	GLO	right	far	1	intact	intact	Feb1_fps_avg_aud.mp4	1	0	0.838914	0	1	left	yellow	1	0	0
407	3	18	1	auto	0.5	0.517121	red	1	up	up	GLO	right	close	0	intact	none	none	0	0	0.849949	0	1	down	red	1	0	0
407	3	19	1	auto	0.5	0.517188	blue	1	left	left	GLO	right	far	1	intact	intact	cabd6947-9e88-4e9a-90fa-985b610f3784_fps_avg_aud.mp4	1	0	0.676845	0	1	up	blue	1	0	0
407	3	20	1	auto	0.5	0.517036	blue	0	up	up	GLO	right	close	1	intact	intact	cea732af-276b-4e98-ac0e-85adfd7a4545_fps_avg_aud.mp4	1	0	0.645162	0	1	up	blue	1	0	0
407	3	21	1	auto	0.5	0.516738	yellow	1	up	up	GLO	right	close	1	intact	intact	Mar19_fps_avg_aud.mp4	1	0	1.03863	0	1	down	red	0	0	0
407	3	22	1	auto	0.5	0.516956	blue	1	down	down	GLO	right	close	1	intact	intact	7cff1761-7eb4-4352-9fd6-437bff370f37_fps_avg_aud.mp4	1	0	1.85241	0	1	up	blue	1	0	0
407	3	23	1	auto	0.5	0.515554	green	0	right	right	GLO	right	far	1	intact	intact	August_2,_2015_fps_avg_aud.mp4	1	0	0.80611	0	1	right	green	1	0	0
407	3	24	1	auto	0.5	0.515938	blue	1	down	down	GLO	left	far	0	intact	none	none	0	0	1.28362	0	1	up	blue	1	0	0
407	3	25	1	auto	0.5	0.516072	blue	0	up	up	GLO	left	far	1	intact	intact	Jun5_fps_avg_aud.mp4	1	0	0.634274	0	1	up	blue	1	0	0
407	3	26	1	auto	0.5	0.516048	green	1	left	left	GLO	right	close	0	intact	none	none	0	0	0.533458	0	1	left	yellow	0	0	0
407	3	27	1	auto	0.5	0.517202	red	0	down	down	GLO	left	close	0	intact	none	none	0	0	1.55005	0	1	down	red	1	0	0
407	3	28	1	auto	0.5	NaN	yellow	1	up	up	GLO	none	far	1	intact	intact	May27_fps_avg_aud.mp4	0	0	NaN	NaN	NaN	none	none	NaN	0	0
407	3	29	1	auto	0.5	NaN	yellow	0	left	left	GLO	none	far	0	intact	none	none	0	0	NaN	NaN	NaN	none	none	NaN	0	0
407	3	30	1	auto	0.5	NaN	green	0	right	right	GLO	none	close	1	intact	intact	34317ec5-8b9d-4b06-8954-49f3b4c2619c_fps_avg_aud.mp4	0	0	NaN	NaN	NaN	none	none	NaN	0	0
407	3	31	1	auto	0.5	NaN	blue	1	down	down	GLO	none	far	1	intact	intact	2d9948f5-94d5-495f-a74e-80174a3c508a_fps_avg_aud.mp4	0	0	NaN	NaN	NaN	none	none	NaN	0	0
407	3	32	1	auto	0.5	NaN	yellow	0	left	left	GLO	none	close	1	intact	intact	Sep30_fps_avg_aud.mp4	0	0	NaN	NaN	NaN	none	none	NaN	0	0
407	3	33	1	auto	0.5	NaN	green	1	down	down	GLO	none	far	1	intact	intact	06fe833b-37ac-4f46-b915-fda1c2b107fe_fps_avg_aud.mp4	0	0	NaN	NaN	NaN	none	none	NaN	0	0
407	3	34	1	auto	0.5	NaN	yellow	0	left	left	GLO	none	close	1	intact	intact	8a8f2893-dc1c-441b-8b88-03672ad98bf9_fps_avg_aud.mp4	0	0	NaN	NaN	NaN	none	none	NaN	0	0
407	3	35	1	auto	0.5	NaN	yellow	1	up	up	GLO	none	far	0	intact	none	none	0	0	NaN	NaN	NaN	none	none	NaN	0	0
407	3	36	1	auto	0.5	NaN	green	1	up	up	GLO	none	far	0	intact	none	none	0	0	NaN	NaN	NaN	none	none	NaN	0	0
407	3	37	1	auto	0.5	NaN	yellow	1	down	down	GLO	none	far	1	intact	intact	f001cded-b985-4905-a6ac-c1793ff8fab2_fps_avg_aud.mp4	0	0	NaN	NaN	NaN	none	none	NaN	0	0
407	3	38	1	auto	0.5	NaN	blue	1	left	left	GLO	none	far	0	intact	none	none	0	0	NaN	NaN	NaN	none	none	NaN	0	0
407	3	39	1	auto	0.5	NaN	blue	1	left	left	GLO	none	close	1	intact	intact	June_2016_(4)_fps_avg_aud.mp4	0	0	NaN	NaN	NaN	none	none	NaN	0	0
407	3	40	1	auto	0.5	NaN	yellow	0	left	left	GLO	none	far	1	intact	intact	16fe28b7-019b-49e7-9b4b-6b9fba85fe3d_fps_avg_aud.mp4	0	0	NaN	NaN	NaN	none	none	NaN	0	0
407	3	41	1	auto	0.5	NaN	green	0	right	right	GLO	none	far	0	intact	none	none	0	0	NaN	NaN	NaN	none	none	NaN	0	0
407	3	42	1	auto	0.5	NaN	blue	1	left	left	GLO	none	far	0	intact	none	none	0	0	NaN	NaN	NaN	none	none	NaN	0	0
407	3	43	1	auto	0.5	NaN	red	0	down	down	GLO	none	close	1	intact	intact	9c75459a-7dcd-444e-93fd-b229653b8169_fps_avg_aud.mp4	0	0	NaN	NaN	NaN	none	none	NaN	0	0
407	3	44	1	auto	0.5	NaN	yellow	0	left	left	GLO	none	far	1	intact	intact	ed9842b1-ccb5-4e6e-8fcb-d81eb3d6f297_fps_avg_aud.mp4	0	0	NaN	NaN	NaN	none	none	NaN	0	0
407	3	45	1	auto	0.5	NaN	red	1	right	right	GLO	none	close	0	intact	none	none	0	0	NaN	NaN	NaN	none	none	NaN	0	0
407	3	46	1	auto	0.5	NaN	green	0	right	right	GLO	none	close	0	intact	none	none	0	0	NaN	NaN	NaN	none	none	NaN	0	0
407	3	47	1	auto	0.5	NaN	red	1	left	left	GLO	none	far	1	intact	intact	a3a57263-6857-435d-87b3-5c44ae53e10a_fps_avg_aud.mp4	0	0	NaN	NaN	NaN	none	none	NaN	0	0
407	3	48	1	auto	0.5	NaN	yellow	0	left	left	GLO	none	close	1	intact	intact	b2b0c46b-c908-4752-b5cb-16abe9f2c872_fps_avg_aud.mp4	0	0	NaN	NaN	NaN	none	none	NaN	0	0
407	3	49	1	auto	0.5	NaN	red	1	up	up	GLO	none	far	0	intact	none	none	0	0	NaN	NaN	NaN	none	none	NaN	0	0
407	3	50	1	auto	0.5	NaN	yellow	1	up	up	GLO	none	far	1	intact	intact	July25_fps_avg_aud.mp4	0	0	NaN	NaN	NaN	none	none	NaN	0	0
407	3	51	1	auto	0.5	NaN	red	0	down	down	GLO	none	far	0	intact	none	none	0	0	NaN	NaN	NaN	none	none	NaN	0	0
407	3	52	1	auto	0.5	NaN	red	0	down	down	GLO	none	close	1	intact	intact	b5bcd3a2-267e-4413-b730-c3121b8457ab_fps_avg_aud.mp4	0	0	NaN	NaN	NaN	none	none	NaN	0	0
407	3	53	1	auto	0.5	NaN	yellow	0	left	left	GLO	none	close	1	intact	intact	Sep22_fps_avg_aud.mp4	0	0	NaN	NaN	NaN	none	none	NaN	0	0
407	3	54	1	auto	0.5	NaN	yellow	0	left	left	GLO	none	far	0	intact	none	none	0	0	NaN	NaN	NaN	none	none	NaN	0	0
407	3	55	1	auto	0.5	NaN	blue	1	down	down	GLO	none	close	1	intact	intact	b70b2fc0-8728-4c47-a0fd-a887a904f1ee_fps_avg_aud.mp4	0	0	NaN	NaN	NaN	none	none	NaN	0	0
407	3	56	1	auto	0.5	NaN	green	0	right	right	GLO	none	far	1	intact	intact	db8b6c6f-c114-4747-8437-3bfc1210df49_fps_avg_aud.mp4	0	0	NaN	NaN	NaN	none	none	NaN	0	0
407	3	57	1	auto	0.5	NaN	yellow	0	left	left	GLO	none	close	0	intact	none	none	0	0	NaN	NaN	NaN	none	none	NaN	0	0
407	3	58	1	auto	0.5	NaN	yellow	0	left	left	GLO	none	close	1	intact	intact	b23c9ea6-adb6-492c-965f-16af3f7801e9_fps_avg_aud.mp4	0	0	NaN	NaN	NaN	none	none	NaN	0	0
407	3	59	1	auto	0.5	NaN	yellow	0	left	left	GLO	none	close	1	intact	intact	8131cc16-56a9-45d8-8dab-20ead5938e0a_fps_avg_aud.mp4	0	0	NaN	NaN	NaN	none	none	NaN	0	0
407	3	60	1	auto	0.5	NaN	blue	1	down	down	GLO	none	close	1	intact	intact	8d515f52-784f-4547-b4bd-dfedabc9c31a_fps_avg_aud.mp4	0	0	NaN	NaN	NaN	none	none	NaN	0	0
407	3	61	1	auto	0.5	NaN	blue	0	up	up	GLO	none	close	0	intact	none	none	0	0	NaN	NaN	NaN	none	none	NaN	0	0
407	3	62	1	auto	0.5	NaN	yellow	0	left	left	GLO	none	close	0	intact	none	none	0	0	NaN	NaN	NaN	none	none	NaN	0	0
407	3	63	1	auto	0.5	NaN	blue	0	up	up	GLO	none	close	1	intact	intact	049f3843-4d05-4200-8b41-7c0b71c68f4c_fps_avg_aud.mp4	0	0	NaN	NaN	NaN	none	none	NaN	0	0
407	3	64	1	auto	0.5	NaN	green	1	down	down	GLO	none	close	1	intact	intact	99e5912a-fa6d-43dc-a1df-f887e6ef8a00_fps_avg_aud.mp4	0	0	NaN	NaN	NaN	none	none	NaN	0	0
407	3	65	1	auto	0.5	NaN	green	0	right	right	GLO	none	close	0	intact	none	none	0	0	NaN	NaN	NaN	none	none	NaN	0	0
407	3	66	1	auto	0.5	NaN	yellow	1	right	right	GLO	none	far	0	intact	none	none	0	0	NaN	NaN	NaN	none	none	NaN	0	0
407	3	67	1	auto	0.5	NaN	green	0	right	right	GLO	none	far	0	intact	none	none	0	0	NaN	NaN	NaN	none	none	NaN	0	0
407	3	68	1	auto	0.5	NaN	yellow	1	down	down	GLO	none	close	1	intact	intact	1fd9b798-493d-4dfc-a8df-678bad207055_fps_avg_aud.mp4	0	0	NaN	NaN	NaN	none	none	NaN	0	0
407	3	69	1	auto	0.5	NaN	green	0	right	right	GLO	none	close	1	intact	intact	cef9c179-f64d-4543-875f-6808da2329b6_fps_avg_aud.mp4	0	0	NaN	NaN	NaN	none	none	NaN	0	0
407	3	70	1	auto	0.5	NaN	red	0	down	down	GLO	none	far	1	intact	intact	c4382136-d60d-4fd0-872b-23cb9269b725_fps_avg_aud.mp4	0	0	NaN	NaN	NaN	none	none	NaN	0	0
407	3	71	1	auto	0.5	NaN	green	1	up	up	GLO	none	close	1	intact	intact	17bc9968-edac-4234-b3eb-c8487676c442_fps_avg_aud.mp4	0	0	NaN	NaN	NaN	none	none	NaN	0	0
407	3	72	1	auto	0.5	NaN	red	0	down	down	GLO	none	far	1	intact	intact	July27_fps_avg_aud.mp4	0	0	NaN	NaN	NaN	none	none	NaN	0	0
407	3	73	1	auto	0.5	NaN	yellow	0	left	left	GLO	none	far	1	intact	intact	2ad8c2cc-f109-45c5-925b-f1af257730e3_fps_avg_aud.mp4	0	0	NaN	NaN	NaN	none	none	NaN	0	0
407	3	74	1	auto	0.5	NaN	blue	1	left	left	GLO	none	far	0	intact	none	none	0	0	NaN	NaN	NaN	none	none	NaN	0	0
407	3	75	1	auto	0.5	NaN	red	1	left	left	GLO	none	far	1	intact	intact	e2244423-2494-4cef-96da-ceaa115b3e8d_fps_avg_aud.mp4	0	0	NaN	NaN	NaN	none	none	NaN	0	0
407	3	76	1	auto	0.5	NaN	blue	0	up	up	GLO	none	far	1	intact	intact	d1495dc6-3264-40ae-807f-007f3ab4bdee_fps_avg_aud.mp4	0	0	NaN	NaN	NaN	none	none	NaN	0	0
407	3	77	1	auto	0.5	NaN	yellow	1	down	down	GLO	none	close	1	intact	intact	a9843691-e4cb-4c12-aa70-47f2024c5698_fps_avg_aud.mp4	0	0	NaN	NaN	NaN	none	none	NaN	0	0
407	3	78	1	auto	0.5	NaN	blue	0	up	up	GLO	none	far	1	intact	intact	Oct31_fps_avg_aud.mp4	0	0	NaN	NaN	NaN	none	none	NaN	0	0
407	3	79	1	auto	0.5	NaN	green	1	up	up	GLO	none	close	1	intact	intact	September_2016_(3)_fps_avg_aud.mp4	0	0	NaN	NaN	NaN	none	none	NaN	0	0
407	3	80	1	auto	0.5	NaN	red	1	left	left	GLO	none	far	0	intact	none	none	0	0	NaN	NaN	NaN	none	none	NaN	0	0
407	3	81	1	auto	0.5	NaN	green	0	right	right	GLO	none	close	1	intact	intact	76b50970-7143-4993-96e1-54ee18b8278e_fps_avg_aud.mp4	0	0	NaN	NaN	NaN	none	none	NaN	0	0
407	3	82	1	auto	0.5	NaN	blue	1	right	right	GLO	none	far	0	intact	none	none	0	0	NaN	NaN	NaN	none	none	NaN	0	0
407	3	83	1	auto	0.5	NaN	blue	1	left	left	GLO	none	close	1	intact	intact	March_15_2016_fps_avg_aud.mp4	0	0	NaN	NaN	NaN	none	none	NaN	0	0
407	3	84	1	auto	0.5	NaN	green	0	right	right	GLO	none	far	0	intact	none	none	0	0	NaN	NaN	NaN	none	none	NaN	0	0
407	3	85	1	auto	0.5	NaN	blue	1	left	left	GLO	none	close	1	intact	intact	8c9efcf8-40ef-4975-90f5-9d2449140a05_fps_avg_aud.mp4	0	0	NaN	NaN	NaN	none	none	NaN	0	0
407	3	86	1	auto	0.5	NaN	blue	0	up	up	GLO	none	far	1	intact	intact	ac2b9dfa-7a4b-40ef-9499-c883a9127ad7_fps_avg_aud.mp4	0	0	NaN	NaN	NaN	none	none	NaN	0	0
407	3	87	1	auto	0.5	NaN	yellow	0	left	left	GLO	none	close	1	intact	intact	ea8c6916-8b70-4539-be72-29487b43dc07_fps_avg_aud.mp4	0	0	NaN	NaN	NaN	none	none	NaN	0	0
407	3	88	1	auto	0.5	NaN	blue	0	up	up	GLO	none	close	0	intact	none	none	0	0	NaN	NaN	NaN	none	none	NaN	0	0
407	3	89	1	auto	0.5	NaN	blue	0	up	up	GLO	none	far	0	intact	none	none	0	0	NaN	NaN	NaN	none	none	NaN	0	0
407	3	90	1	auto	0.5	NaN	blue	0	up	up	GLO	none	close	1	intact	intact	79665cdb-61c8-40fb-9ffc-0682e57caf2f_fps_avg_aud.mp4	0	0	NaN	NaN	NaN	none	none	NaN	0	0
407	3	91	1	auto	0.5	NaN	green	0	right	right	GLO	none	far	0	intact	none	none	0	0	NaN	NaN	NaN	none	none	NaN	0	0
407	3	92	1	auto	0.5	NaN	green	1	down	down	GLO	none	far	0	intact	none	none	0	0	NaN	NaN	NaN	none	none	NaN	0	0
407	3	93	1	auto	0.5	NaN	red	0	down	down	GLO	none	far	0	intact	none	none	0	0	NaN	NaN	NaN	none	none	NaN	0	0
407	4	1	0	self	1.5	1.51637	blue	1	right	right	GLO	left	far	1	intact	intact	1affd9f8-27af-4e8b-9985-5f3abbee6931_fps_avg_aud.mp4	0	0	0.976311	0	1	up	blue	1	0.001	low
407	4	2	0	self	1.5	1.51712	yellow	0	left	left	GLO	right	close	1	intact	intact	53f27130-5392-4410-b48f-90a712697cfb_fps_avg_aud.mp4	0	0	0.798633	0	1	left	yellow	1	0.002	low
407	4	3	0	self	1.5	1.51715	blue	0	up	up	GLO	right	far	1	intact	intact	5c88b1ee-81ac-4658-85d2-80068b2841d0_fps_avg_aud.mp4	0	0	0.683216	0	1	up	blue	1	0.003	low
407	4	4	0	self	1.5	1.51701	green	0	right	right	GLO	right	far	1	intact	intact	caf1693c-0eef-47ff-aee9-5348af86759e_fps_avg_aud.mp4	0	0	0.523484	0	1	right	green	1	0.004	low
407	4	5	0	self	1.5	1.51595	blue	0	up	up	GLO	right	close	1	intact	intact	ea6675d4-3684-48c3-9bd0-c32d38c48c9e_fps_avg_aud.mp4	0	0	0.677109	0	1	up	blue	1	0.005	low
407	4	6	0	self	1.5	1.51669	red	1	up	up	GLO	right	close	1	intact	intact	6ce71e9b-76db-4300-af8c-23df366c03d0_fps_avg_aud.mp4	0	0	0.883547	0	1	down	red	1	0.006	low
407	4	7	0	self	1.5	1.51673	green	1	up	up	GLO	right	far	1	intact	intact	Feb28_fps_avg_aud.mp4	0	0	0.701261	0	1	right	green	1	0.007	low
407	4	8	0	self	1.5	1.51706	red	1	left	left	GLO	right	close	1	intact	intact	9c75459a-7dcd-444e-93fd-b229653b8169_fps_avg_aud.mp4	0	0	0.983847	0	1	down	red	1	0.008	low
407	4	9	0	self	1.5	1.51669	yellow	1	down	down	GLO	right	far	1	intact	intact	e57a35d6-39b7-4b9c-a4a1-844e0bebd3c1_fps_avg_aud.mp4	0	0	1.36665	0	1	left	yellow	1	0.009	low
407	4	10	0	self	1.5	1.51714	blue	0	up	up	GLO	left	far	1	intact	intact	2ad8c2cc-f109-45c5-925b-f1af257730e3_fps_avg_aud.mp4	0	0	0.760117	0	1	up	blue	1	0.01	low
407	4	11	0	self	1.5	1.51673	blue	1	left	left	GLO	left	far	1	intact	intact	491f864e-d652-4cca-82ba-d023f3192016_fps_avg_aud.mp4	0	0	0.706762	0	1	up	blue	1	0.011	low
407	4	12	0	self	1.5	1.51579	blue	0	up	up	GLO	left	close	1	intact	intact	bb75a9e7-75e9-4641-8e0c-ecaabf7a7e69(1)_fps_avg_aud.mp4	0	0	0.600111	0	1	up	blue	1	0.012	low
407	4	13	0	self	1.5	1.51627	red	1	right	right	GLO	right	far	1	intact	intact	37d023e5-2b94-437c-b04e-88100eb5850b_fps_avg_aud.mp4	0	0	0.924485	0	1	down	red	1	0.013	low
407	4	14	0	self	1.5	1.51609	red	0	down	down	GLO	right	far	1	intact	intact	July6_fps_avg_aud.mp4	0	0	0.733475	0	1	down	red	1	0.014	low
407	4	15	0	self	1.5	1.51686	red	0	down	down	GLO	right	far	1	intact	intact	f10531c5-f8e7-4f38-bd6c-28ce29d75760_fps_avg_aud.mp4	0	0	0.799724	0	1	down	red	1	0.015	low
407	4	16	0	self	1.5	1.51631	blue	0	up	up	GLO	left	close	1	intact	intact	june_18_2015_fps_avg_aud.mp4	0	0	1.18317	0	1	up	blue	1	0.016	low
407	4	17	0	self	1.5	1.51608	blue	0	up	up	GLO	left	close	1	intact	intact	fd4a95d6-f171-4c0b-8de2-e9ca909c9eff_fps_avg_aud.mp4	0	0	0.617212	0	1	up	blue	1	0.017	low
407	4	18	0	self	1.5	1.51616	yellow	0	left	left	GLO	right	close	1	intact	intact	34317ec5-8b9d-4b06-8954-49f3b4c2619c_fps_avg_aud.mp4	0	0	0.641938	0	1	left	yellow	1	0.018	low
407	4	19	0	self	1.5	1.51703	blue	1	down	down	GLO	right	close	1	intact	intact	63b4d034-af4a-4a03-8aa0-83818020367c_fps_avg_aud.mp4	0	0	0.782466	0	1	up	blue	1	0.019	low
407	4	20	0	self	1.5	1.51582	green	0	right	right	GLO	right	far	1	intact	intact	March25_2016_fps_avg_aud.mp4	0	0	0.613952	0	1	right	green	1	0.02	low
407	4	21	0	self	1.5	1.51736	blue	0	up	up	GLO	right	far	1	intact	intact	ea69ea96-da66-4080-96c0-6671ca9fd051_fps_avg_aud.mp4	0	0	0.616283	0	1	up	blue	1	0.021	low
407	4	22	0	self	1.5	1.51655	blue	0	up	up	GLO	left	close	1	intact	intact	cc0b25a9-3d1b-4c67-b1c5-5f27d60e59cb_fps_avg_aud.mp4	0	0	0.567853	0	1	up	blue	1	0.022	low
407	4	23	0	self	1.5	1.5162	blue	0	up	up	GLO	left	close	1	intact	intact	november_5_2015_fps_avg_aud.mp4	0	0	0.599716	0	1	up	blue	1	0.023	low
407	4	24	0	self	1.5	1.51677	green	1	left	left	GLO	left	close	1	intact	intact	Jun8_fps_avg_aud.mp4	0	0	0.883145	0	1	right	green	1	0.024	low
407	4	25	0	self	1.5	1.51585	blue	0	up	up	GLO	right	far	1	intact	intact	december_2015_(4)_fps_avg_aud.mp4	0	0	0.867486	0	1	up	blue	1	0.025	low
407	4	26	0	self	1.5	1.51689	blue	1	right	right	GLO	left	close	1	intact	intact	38a0ff6f-f976-4235-af7e-49859d376c46_fps_avg_aud.mp4	0	0	0.776879	0	1	up	blue	1	0.026	low
407	4	27	0	self	1.5	NaN	blue	1	down	down	GLO	none	close	1	intact	intact	Jun24_fps_avg_aud.mp4	0	0	NaN	NaN	NaN	none	none	NaN	0.026	low
407	4	28	0	self	1.5	NaN	red	1	up	up	GLO	none	close	1	intact	intact	bfb0b536-e287-45e9-a605-3cba4dd07d9b_fps_avg_aud.mp4	0	0	NaN	NaN	NaN	none	none	NaN	0.026	low
407	4	29	0	self	1.5	NaN	blue	1	left	left	GLO	none	far	1	intact	intact	Nov11_fps_avg_aud.mp4	0	0	NaN	NaN	NaN	none	none	NaN	0.026	low
407	4	30	0	self	1.5	NaN	red	1	right	right	GLO	none	close	1	intact	intact	21ca1f40-8184-4506-9096-1849a40e04e2_fps_avg_aud.mp4	0	0	NaN	NaN	NaN	none	none	NaN	0.026	low
407	4	31	0	self	1.5	NaN	yellow	1	down	down	GLO	none	far	1	intact	intact	801d308b-7fe8-4a7f-8ad6-dafa42c9e3af_fps_avg_aud.mp4	0	0	NaN	NaN	NaN	none	none	NaN	0.026	low
407	4	32	0	self	1.5	NaN	red	1	left	left	GLO	none	close	1	intact	intact	f9a11fba-d584-4a74-ba4f-e5eb4ac62b73_fps_avg_aud.mp4	0	0	NaN	NaN	NaN	none	none	NaN	0.026	low
407	4	33	0	self	1.5	NaN	blue	0	up	up	GLO	none	far	1	intact	intact	June7_fps_avg_aud.mp4	0	0	NaN	NaN	NaN	none	none	NaN	0.026	low
407	4	34	0	self	1.5	NaN	red	0	down	down	GLO	none	close	1	intact	intact	Mar21_fps_avg_aud.mp4	0	0	NaN	NaN	NaN	none	none	NaN	0.026	low
407	4	35	0	self	1.5	NaN	red	0	down	down	GLO	none	close	1	intact	intact	10110e03-827e-4196-8676-097b68a947cd_fps_avg_aud.mp4	0	0	NaN	NaN	NaN	none	none	NaN	0.026	low
407	4	36	0	self	1.5	NaN	blue	0	up	up	GLO	none	far	1	intact	intact	c5792f9d-c420-493b-acf2-46528babd08c_fps_avg_aud.mp4	0	0	NaN	NaN	NaN	none	none	NaN	0.026	low
407	4	37	0	self	1.5	NaN	red	0	down	down	GLO	none	close	1	intact	intact	1c37d23d-fc2a-4933-8024-0106ebebe6c4_fps_avg_aud.mp4	0	0	NaN	NaN	NaN	none	none	NaN	0.026	low
407	5	1	0	auto	1.5	1.5166	blue	1	right	right	GLO	left	close	1	intact	intact	11bc07f6-cbc9-48b9-a240-792e373d6a2a_fps_avg_aud.mp4	1	0	1.03442	0	1	up	blue	1	0.036	high
407	5	2	0	auto	1.5	1.51623	red	1	right	right	GLO	left	far	1	intact	intact	089179b5-68cb-4167-89fa-52f69549f728_fps_avg_aud.mp4	1	0	0.847995	0	1	down	red	1	0.046	high
407	5	3	0	auto	1.5	1.51679	red	1	left	left	GLO	right	far	1	intact	intact	Oct19_fps_avg_aud.mp4	1	27	0.974776	0.119538	1	down	red	1	0.056	high
407	5	4	0	auto	1.5	1.51781	blue	1	down	down	GLO	left	close	1	intact	intact	Jan20_fps_avg_aud.mp4	1	27	0.833243	0.103175	2	up	blue	1	0.066	high
407	5	5	0	auto	1.5	1.51615	red	0	down	down	GLO	left	far	0	intact	none	none	0	0	0.817449	0	1	down	red	1	0.076	high
407	5	6	0	auto	1.5	1.51694	red	0	down	down	GLO	left	close	0	intact	none	none	0	0	0.766638	0	1	down	red	1	0.086	high
407	5	7	0	auto	1.5	1.51675	blue	1	right	right	GLO	right	far	1	intact	intact	2ee32cdc-eb1b-4b14-b0d7-fb25b7ed46e3_fps_avg_aud.mp4	1	0	0.800445	0	1	up	blue	1	0.096	high
407	5	8	0	auto	1.5	1.51598	red	1	up	up	GLO	left	far	0	intact	none	none	0	0	1.44845	0	1	down	red	1	0.106	high
407	5	9	0	auto	1.5	1.5169	yellow	0	left	left	GLO	left	close	0	intact	none	none	0	0	0.591026	0	1	left	yellow	1	0.116	high
407	5	10	0	auto	1.5	1.51692	yellow	0	left	left	GLO	left	far	1	intact	intact	7ed41b90-fac5-42bc-94a9-a4d7f021d578_fps_avg_aud.mp4	1	27	0.635963	0.0851046	2	left	yellow	1	0.126	high
407	5	11	0	auto	1.5	1.51679	yellow	0	left	left	GLO	right	far	0	intact	none	none	0	0	0.623234	0	1	left	yellow	1	0.136	high
407	5	12	0	auto	1.5	1.51661	blue	0	up	up	GLO	right	far	1	intact	intact	cfead01b-2f72-4131-8069-3f2052f352e3_fps_avg_aud.mp4	1	1	0.997914	6.14091e-06	1	up	blue	1	0.146	high
407	5	13	0	auto	1.5	1.51648	yellow	1	down	down	GLO	left	far	1	intact	intact	533b0238-357b-409c-8d86-25285970eb98_fps_avg_aud.mp4	1	0	0.733232	0	1	down	red	0	0.136	high
407	5	14	0	auto	1.5	1.51703	red	0	down	down	GLO	left	close	0	intact	none	none	0	0	1.3161	0	1	down	red	1	0.146	high
407	5	15	0	auto	1.5	1.51605	red	0	down	down	GLO	right	far	1	intact	intact	d1495dc6-3264-40ae-807f-007f3ab4bdee_fps_avg_aud.mp4	1	0	0.855014	0	1	down	red	1	0.156	high
407	5	16	0	auto	1.5	1.51728	green	0	right	right	GLO	right	far	1	intact	intact	334b06e5-5a99-4c23-b82f-0b02017f9d2e_fps_avg_aud.mp4	1	0	0.606171	0	1	right	green	1	0.166	high
407	5	17	0	auto	1.5	1.51724	yellow	1	up	up	GLO	right	far	1	intact	intact	Jan1_fps_avg_aud.mp4	1	0	1.26668	0	1	left	yellow	1	0.176	high
407	5	18	0	auto	1.5	1.51683	green	1	left	left	GLO	left	close	0	intact	none	none	0	0	1.14998	0	1	right	green	1	0.186	high
407	5	19	0	auto	1.5	1.51677	yellow	1	right	right	GLO	left	far	1	intact	intact	58fa2b05-06d6-4325-b14b-27b0a9645ea5_fps_avg_aud.mp4	1	0	0.999881	0	1	left	yellow	1	0.196	high
407	5	20	0	auto	1.5	1.51683	red	0	down	down	GLO	left	far	1	intact	intact	Dec21_fps_avg_aud.mp4	1	0	0.75015	0	1	down	red	1	0.206	high
407	5	21	0	auto	1.5	1.51622	blue	1	down	down	GLO	right	far	1	intact	intact	54a93c98-7413-4e40-aca3-12bf7a6220c7_fps_avg_aud.mp4	1	0	0.778023	0	1	up	blue	1	0.216	high
407	5	22	0	auto	1.5	1.51679	yellow	1	up	up	GLO	left	far	1	intact	intact	241df9f5-fbf5-49b9-a03c-764ba4b6ace9_fps_avg_aud.mp4	1	0	1.21111	0	1	left	yellow	1	0.226	high
407	5	23	0	auto	1.5	1.51657	yellow	0	left	left	GLO	right	far	0	intact	none	none	0	0	0.65088	0	1	left	yellow	1	0.236	high
407	5	24	0	auto	1.5	1.51594	blue	1	right	right	GLO	left	far	1	intact	intact	5901a51f-f684-46c5-8a4f-abc4c05199d0_fps_avg_aud.mp4	1	0	1.25105	0	1	up	blue	1	0.246	high
407	5	25	0	auto	1.5	1.51596	red	0	down	down	GLO	right	close	1	intact	intact	e00791ee-f5a4-4315-8214-e183c3e1d2cf_fps_avg_aud.mp4	1	0	0.800221	0	1	down	red	1	0.256	high
407	5	26	0	auto	1.5	NaN	yellow	0	left	left	GLO	none	close	0	intact	none	none	0	0	NaN	NaN	NaN	none	none	NaN	0.256	high
407	5	27	0	auto	1.5	NaN	red	1	left	left	GLO	none	far	1	intact	intact	11f7e237-860e-4d5b-9743-89fc16a3360b_fps_avg_aud.mp4	0	0	NaN	NaN	NaN	none	none	NaN	0.256	high
407	5	28	0	auto	1.5	NaN	yellow	0	left	left	GLO	none	close	0	intact	none	none	0	0	NaN	NaN	NaN	none	none	NaN	0.256	high
407	5	29	0	auto	1.5	NaN	yellow	1	right	right	GLO	none	close	1	intact	intact	15914fca-fb16-47ce-929a-161ca2c1fdf7_fps_avg_aud.mp4	0	0	NaN	NaN	NaN	none	none	NaN	0.256	high
407	5	30	0	auto	1.5	NaN	yellow	1	right	right	GLO	none	far	1	intact	intact	108f257a-1892-40f5-b9e3-6eb0557bc08c(1)_fps_avg_aud.mp4	0	0	NaN	NaN	NaN	none	none	NaN	0.256	high
407	5	31	0	auto	1.5	NaN	green	0	right	right	GLO	none	far	0	intact	none	none	0	0	NaN	NaN	NaN	none	none	NaN	0.256	high
407	5	32	0	auto	1.5	NaN	red	1	up	up	GLO	none	far	1	intact	intact	June_2016_(4)_fps_avg_aud.mp4	0	0	NaN	NaN	NaN	none	none	NaN	0.256	high
407	5	33	0	auto	1.5	NaN	yellow	0	left	left	GLO	none	close	1	intact	intact	ec93e301-9c09-4bba-94b5-edac54ba0e07_fps_avg_aud.mp4	0	0	NaN	NaN	NaN	none	none	NaN	0.256	high
407	5	34	0	auto	1.5	NaN	red	0	down	down	GLO	none	far	0	intact	none	none	0	0	NaN	NaN	NaN	none	none	NaN	0.256	high
407	5	35	0	auto	1.5	NaN	red	1	right	right	GLO	none	far	1	intact	intact	Feb28_fps_avg_aud.mp4	0	0	NaN	NaN	NaN	none	none	NaN	0.256	high
407	5	36	0	auto	1.5	NaN	blue	1	left	left	GLO	none	close	1	intact	intact	Nov7_fps_avg_aud.mp4	0	0	NaN	NaN	NaN	none	none	NaN	0.256	high
407	5	37	0	auto	1.5	NaN	green	0	right	right	GLO	none	close	1	intact	intact	b2b0c46b-c908-4752-b5cb-16abe9f2c872_fps_avg_aud.mp4	0	0	NaN	NaN	NaN	none	none	NaN	0.256	high
407	6	1	0	auto	1.5	1.51586	blue	0	up	up	GLO	left	far	1	intact	intact	856001bb-aa8d-41ae-ad3d-fd9ff39c28c0_fps_avg_aud.mp4	1	0	2.25178	0	1	up	blue	1	0.257	low
407	6	2	0	auto	1.5	1.51713	yellow	1	down	down	GLO	right	close	1	intact	intact	16fe28b7-019b-49e7-9b4b-6b9fba85fe3d_fps_avg_aud.mp4	1	3	0.935892	0.00504559	2	down	red	0	0.256	low
407	6	3	0	auto	1.5	1.51612	yellow	0	left	left	GLO	left	close	1	intact	intact	23c8ed33-90c4-4605-8822-6270c3a6ca34_fps_avg_aud.mp4	1	0	0.776411	0	1	left	yellow	1	0.257	low
407	6	4	0	auto	1.5	1.51674	yellow	1	down	down	GLO	right	far	1	intact	intact	6ce71e9b-76db-4300-af8c-23df366c03d0_fps_avg_aud.mp4	1	0	1.24147	0	1	left	yellow	1	0.258	low
407	6	5	0	auto	1.5	1.51709	green	1	up	up	GLO	left	far	1	intact	intact	Nov30_fps_avg_aud.mp4	1	0	0.833123	0	1	right	green	1	0.259	low
407	6	6	0	auto	1.5	1.51611	green	1	down	down	GLO	left	far	1	intact	intact	Feb25_fps_avg_aud.mp4	1	0	0.683603	0	1	right	green	1	0.26	low
407	6	7	0	auto	1.5	1.51712	green	0	right	right	GLO	left	close	0	intact	none	none	0	0	0.533303	0	1	right	green	1	0.261	low
407	6	8	0	auto	1.5	1.51673	yellow	0	left	left	GLO	right	far	0	intact	none	none	0	0	0.657971	0	1	left	yellow	1	0.262	low
407	6	9	0	auto	1.5	1.51717	green	1	left	left	GLO	right	close	0	intact	none	none	0	0	0.700196	0	1	right	green	1	0.263	low
407	6	10	0	auto	1.5	1.51637	yellow	0	left	left	GLO	left	far	1	intact	intact	fd4a95d6-f171-4c0b-8de2-e9ca909c9eff_fps_avg_aud.mp4	1	0	0.785225	0	1	left	yellow	1	0.264	low
407	6	11	0	auto	1.5	1.51705	green	0	right	right	GLO	right	far	1	intact	intact	december_2015_(4)_fps_avg_aud.mp4	1	0	0.87653	0	1	right	green	1	0.265	low
407	6	12	0	auto	1.5	1.51611	green	0	right	right	GLO	left	close	0	intact	none	none	0	0	0.667102	0	1	right	green	1	0.266	low
407	6	13	0	auto	1.5	1.51722	green	0	right	right	GLO	right	close	1	intact	intact	34cddff1-7a1a-4e71-be66-8a745a1d42f4_fps_avg_aud.mp4	1	2	1.01684	0.0229821	1	right	green	1	0.267	low
407	6	14	0	auto	1.5	1.51612	blue	0	up	up	GLO	right	close	0	intact	none	none	0	0	0.75066	0	1	up	blue	1	0.268	low
407	6	15	0	auto	1.5	1.51709	red	0	down	down	GLO	left	far	1	intact	intact	0096623f-bd93-48df-96f9-85a0a749a586_fps_avg_aud.mp4	1	0	0.876504	0	1	down	red	1	0.269	low
407	6	16	0	auto	1.5	1.51672	yellow	1	up	up	GLO	right	far	0	intact	none	none	0	0	1.23318	0	1	left	yellow	1	0.27	low
407	6	17	0	auto	1.5	1.51658	green	1	left	left	GLO	right	close	0	intact	none	none	0	0	0.766732	0	1	right	green	1	0.271	low
407	6	18	0	auto	1.5	1.51715	green	1	up	up	GLO	left	close	1	intact	intact	fa34c2a5-d3e2-4d1e-914f-e40c92a49120_fps_avg_aud.mp4	1	0	0.96541	0	1	right	green	1	0.272	low
407	6	19	0	auto	1.5	1.51707	yellow	1	down	down	GLO	right	far	1	intact	intact	315e95e4-d9b0-4497-8992-fa67c8970229_fps_avg_aud.mp4	1	0	1.14908	0	1	down	red	0	0.271	low
407	6	20	0	auto	1.5	1.5169	green	0	right	right	GLO	left	far	1	intact	intact	d474c6db-95a4-4753-b361-ee940450cd55_fps_avg_aud.mp4	1	0	1.31646	0	1	right	green	1	0.272	low
407	6	21	0	auto	1.5	1.51707	red	0	down	down	GLO	right	close	1	intact	intact	Mar20_fps_avg_aud.mp4	1	120	1.44923	0.466973	3	down	red	1	0.273	low
407	6	22	0	auto	1.5	1.51641	yellow	0	left	left	GLO	right	far	1	intact	intact	b502b8fe-bf35-4777-bc2b-b5e93b1b3223_fps_avg_aud.mp4	1	0	0.67583	0	1	left	yellow	1	0.274	low
407	6	23	0	auto	1.5	1.51604	red	1	right	right	GLO	right	far	1	intact	intact	74863169-b4eb-4472-bb27-c309a4fed0aa_fps_avg_aud.mp4	1	0	1.33362	0	1	down	red	1	0.275	low
407	6	24	0	auto	1.5	1.51602	blue	0	up	up	GLO	right	close	0	intact	none	none	0	0	0.725176	0	1	up	blue	1	0.276	low
407	6	25	0	auto	1.5	NaN	yellow	0	left	left	GLO	none	close	0	intact	none	none	0	0	NaN	NaN	NaN	none	none	NaN	0.276	low
407	6	26	0	auto	1.5	NaN	red	0	down	down	GLO	none	far	0	intact	none	none	0	0	NaN	NaN	NaN	none	none	NaN	0.276	low
407	6	27	0	auto	1.5	NaN	blue	0	up	up	GLO	none	close	1	intact	intact	17cb4c50-a413-43aa-8ef1-30df975b04f4_fps_avg_aud.mp4	0	0	NaN	NaN	NaN	none	none	NaN	0.276	low
407	6	28	0	auto	1.5	NaN	red	1	up	up	GLO	none	far	0	intact	none	none	0	0	NaN	NaN	NaN	none	none	NaN	0.276	low
407	6	29	0	auto	1.5	NaN	red	0	down	down	GLO	none	close	1	intact	intact	8a8f2893-dc1c-441b-8b88-03672ad98bf9_fps_avg_aud.mp4	0	0	NaN	NaN	NaN	none	none	NaN	0.276	low
407	6	30	0	auto	1.5	NaN	green	0	right	right	GLO	none	far	1	intact	intact	591cd28e-3b15-449a-b19f-e2e7cabcd7ba_fps_avg_aud.mp4	0	0	NaN	NaN	NaN	none	none	NaN	0.276	low
407	6	31	0	auto	1.5	NaN	green	1	down	down	GLO	none	far	1	intact	intact	August1_fps_avg_aud.mp4	0	0	NaN	NaN	NaN	none	none	NaN	0.276	low
407	6	32	0	auto	1.5	NaN	blue	0	up	up	GLO	none	close	1	intact	intact	August_2015_fps_avg_aud.mp4	0	0	NaN	NaN	NaN	none	none	NaN	0.276	low
407	6	33	0	auto	1.5	NaN	green	0	right	right	GLO	none	far	1	intact	intact	92171dfa-1474-4f0d-8c37-ab1d226fa154(1)_fps_avg_aud.mp4	0	0	NaN	NaN	NaN	none	none	NaN	0.276	low
407	6	34	0	auto	1.5	NaN	red	1	right	right	GLO	none	close	0	intact	none	none	0	0	NaN	NaN	NaN	none	none	NaN	0.276	low
407	6	35	0	auto	1.5	NaN	green	0	right	right	GLO	none	far	0	intact	none	none	0	0	NaN	NaN	NaN	none	none	NaN	0.276	low
407	6	36	0	auto	1.5	NaN	yellow	0	left	left	GLO	none	far	0	intact	none	none	0	0	NaN	NaN	NaN	none	none	NaN	0.276	low
407	6	37	0	auto	1.5	NaN	yellow	1	down	down	GLO	none	close	1	intact	intact	959dfee9-c1d0-4643-9cbd-f9e818b706fa_fps_avg_aud.mp4	0	0	NaN	NaN	NaN	none	none	NaN	0.276	low
407	7	1	0	self	1.5	1.51638	red	1	left	left	GLO	left	close	1	intact	intact	cc0b25a9-3d1b-4c67-b1c5-5f27d60e59cb_fps_avg_aud.mp4	0	0	0.933495	0	1	left	yellow	0	0.266	high
407	7	2	0	self	1.5	1.51687	blue	1	down	down	GLO	left	close	1	intact	intact	c1a7aae7-8c3e-4488-9566-07a14f982e35_fps_avg_aud.mp4	0	0	1.79314	0	1	up	blue	1	0.276	high
407	7	3	0	self	1.5	1.5171	red	0	down	down	GLO	left	far	1	intact	intact	7c00c850-e528-473f-895e-ee9be83c7963_fps_avg_aud.mp4	0	0	1.36541	0	1	down	red	1	0.286	high
407	7	4	0	self	1.5	1.51694	blue	1	right	right	GLO	left	close	1	intact	intact	f9a11fba-d584-4a74-ba4f-e5eb4ac62b73_fps_avg_aud.mp4	0	0	0.916889	0	1	up	blue	1	0.296	high
407	7	5	0	self	1.5	1.51725	yellow	0	left	left	GLO	left	close	1	intact	intact	e67cff3b-48fd-4045-95c8-a92189606742_fps_avg_aud.mp4	0	0	1.4497	0	1	left	yellow	1	0.306	high
407	7	6	0	self	1.5	1.51735	green	0	right	right	GLO	left	close	1	intact	intact	Dec27_fps_avg_aud.mp4	0	0	0.665267	0	1	right	green	1	0.316	high
407	7	7	0	self	1.5	1.51629	yellow	0	left	left	GLO	right	far	1	intact	intact	August1_fps_avg_aud.mp4	0	0	0.675119	0	1	left	yellow	1	0.326	high
407	7	8	0	self	1.5	1.51708	green	0	right	right	GLO	left	close	1	intact	intact	942f20a2-a776-400d-9488-0c1647ebd585_fps_avg_aud.mp4	0	0	0.616044	0	1	right	green	1	0.336	high
407	7	9	0	self	1.5	1.51578	yellow	0	left	left	GLO	right	close	1	intact	intact	Apr1_fps_avg_aud.mp4	0	0	1.03386	0	1	left	yellow	1	0.346	high
407	7	10	0	self	1.5	1.51682	blue	1	down	down	GLO	right	far	1	intact	intact	Nov7_fps_avg_aud.mp4	0	0	1.45044	0	1	up	blue	1	0.356	high
407	7	11	0	self	1.5	1.51622	blue	0	up	up	GLO	left	far	1	intact	intact	483a899a-71a0-49cf-b2ba-f13374d6b0a8_fps_avg_aud.mp4	0	0	0.566811	0	1	up	blue	1	0.366	high
407	7	12	0	self	1.5	1.51629	green	1	left	left	GLO	right	close	1	intact	intact	bd5cc988-d64f-435a-a1d7-3a872e473f76_fps_avg_aud.mp4	0	0	0.762734	0	1	right	green	1	0.376	high
407	7	13	0	self	1.5	1.51716	red	1	left	left	GLO	left	close	1	intact	intact	e9f06abd-24bb-46d2-ac8b-3a473a758d7e_fps_avg_aud.mp4	0	0	0.776268	0	1	down	red	1	0.386	high
407	7	14	0	self	1.5	1.51628	blue	0	up	up	GLO	left	close	1	intact	intact	e2244423-2494-4cef-96da-ceaa115b3e8d_fps_avg_aud.mp4	0	0	0.85738	0	1	up	blue	1	0.396	high
407	7	15	0	self	1.5	1.51594	red	1	right	right	GLO	left	close	1	intact	intact	aef9b535-d7ad-47d4-adb8-d3ac2abf6652_fps_avg_aud.mp4	0	0	0.79141	0	1	down	red	1	0.406	high
407	7	16	0	self	1.5	1.51714	red	0	down	down	GLO	right	far	1	intact	intact	10110e03-827e-4196-8676-097b68a947cd_fps_avg_aud.mp4	0	0	0.740155	0	1	down	red	1	0.416	high
407	7	17	0	self	1.5	1.51727	blue	1	right	right	GLO	left	close	1	intact	intact	bde7c25a-0ad2-4261-821f-9cae1d4d4033_fps_avg_aud.mp4	0	0	1.45018	0	1	up	blue	1	0.426	high
407	7	18	0	self	1.5	1.51653	red	0	down	down	GLO	right	close	1	intact	intact	19665232-505f-47ba-bfb2-2e9668369ce4_fps_avg_aud.mp4	0	0	0.783488	0	1	down	red	1	0.436	high
407	7	19	0	self	1.5	1.51643	red	1	right	right	GLO	right	close	1	intact	intact	June_2016_(1)_fps_avg_aud.mp4	0	0	1.00061	0	1	down	red	1	0.446	high
407	7	20	0	self	1.5	1.51691	green	1	up	up	GLO	left	close	1	intact	intact	jun14_fps_avg_aud.mp4	0	0	2.03362	0	1	right	green	1	0.456	high
407	7	21	0	self	1.5	1.51603	green	1	up	up	GLO	left	close	1	intact	intact	1559c6cc-6a1d-4309-9bdf-810832c277d8_fps_avg_aud.mp4	0	0	0.934001	0	1	right	green	1	0.466	high
407	7	22	0	self	1.5	1.5162	blue	0	up	up	GLO	right	close	1	intact	intact	0fca764b-7147-4307-96dc-cc1807afd905_fps_avg_aud.mp4	0	0	1.08306	0	1	up	blue	1	0.476	high
407	7	23	0	self	1.5	1.51733	red	1	up	up	GLO	left	close	1	intact	intact	June7_fps_avg_aud.mp4	0	0	0.912275	0	1	down	red	1	0.486	high
407	7	24	0	self	1.5	1.51637	green	1	down	down	GLO	left	close	1	intact	intact	24481237-3ead-4e6a-9a61-be95f34bf5f2_fps_avg_aud.mp4	0	0	0.916659	0	1	left	yellow	0	0.476	high
407	7	25	0	self	1.5	NaN	green	0	right	right	GLO	none	close	1	intact	intact	Apr13_fps_avg_aud.mp4	0	0	NaN	NaN	NaN	none	none	NaN	0.476	high
407	7	26	0	self	1.5	NaN	red	1	right	right	GLO	none	close	1	intact	intact	f5740bdb-f6a7-4842-9fa8-065f8eed57f4_fps_avg_aud.mp4	0	0	NaN	NaN	NaN	none	none	NaN	0.476	high
407	7	27	0	self	1.5	NaN	blue	1	right	right	GLO	none	far	1	intact	intact	July31_fps_avg_aud.mp4	0	0	NaN	NaN	NaN	none	none	NaN	0.476	high
407	7	28	0	self	1.5	NaN	green	0	right	right	GLO	none	far	1	intact	intact	Nov25_fps_avg_aud.mp4	0	0	NaN	NaN	NaN	none	none	NaN	0.476	high
407	7	29	0	self	1.5	NaN	yellow	1	down	down	GLO	none	close	1	intact	intact	d59b9ee2-e1af-4171-a59e-9daefced695e_fps_avg_aud.mp4	0	0	NaN	NaN	NaN	none	none	NaN	0.476	high
407	7	30	0	self	1.5	NaN	blue	0	up	up	GLO	none	close	1	intact	intact	fd318c50-e133-4dc8-918b-b97094aebdf0_fps_avg_aud.mp4	0	0	NaN	NaN	NaN	none	none	NaN	0.476	high
407	7	31	0	self	1.5	NaN	blue	0	up	up	GLO	none	close	1	intact	intact	Dec1_fps_avg_aud.mp4	0	0	NaN	NaN	NaN	none	none	NaN	0.476	high
407	7	32	0	self	1.5	NaN	blue	0	up	up	GLO	none	close	1	intact	intact	f252571c-093b-4ade-9187-cd198d1e3eb0_fps_avg_aud.mp4	0	0	NaN	NaN	NaN	none	none	NaN	0.476	high
407	7	33	0	self	1.5	NaN	red	0	down	down	GLO	none	far	1	intact	intact	02831e99-5ac8-4fc5-9e76-9a04224fb33e_fps_avg_aud.mp4	0	0	NaN	NaN	NaN	none	none	NaN	0.476	high
407	7	34	0	self	1.5	NaN	green	0	right	right	GLO	none	close	1	intact	intact	7ef90bcf-5b2a-4df5-b522-5d3f1e9badf1_fps_avg_aud.mp4	0	0	NaN	NaN	NaN	none	none	NaN	0.476	high
407	7	35	0	self	1.5	NaN	red	1	right	right	GLO	none	far	1	intact	intact	a3a57263-6857-435d-87b3-5c44ae53e10a_fps_avg_aud.mp4	0	0	NaN	NaN	NaN	none	none	NaN	0.476	high
407	7	36	0	self	1.5	NaN	green	0	right	right	GLO	none	close	1	intact	intact	ea69ea96-da66-4080-96c0-6671ca9fd051_fps_avg_aud.mp4	0	0	NaN	NaN	NaN	none	none	NaN	0.476	high
407	7	37	0	self	1.5	NaN	red	0	down	down	GLO	none	close	1	intact	intact	2d9948f5-94d5-495f-a74e-80174a3c508a_fps_avg_aud.mp4	0	0	NaN	NaN	NaN	none	none	NaN	0.476	high
407	8	1	0	auto	1.5	1.51627	yellow	0	left	left	GLO	left	close	1	intact	intact	32a37ce7-a199-40eb-b5c5-b974866ffc28_fps_avg_aud.mp4	1	0	0.923838	0	1	left	yellow	1	0.477	low
407	8	2	0	auto	1.5	1.51712	blue	0	up	up	GLO	left	far	1	intact	intact	July27_fps_avg_aud.mp4	1	0	0.900204	0	1	up	blue	1	0.478	low
407	8	3	0	auto	1.5	1.51563	green	1	down	down	GLO	right	close	1	intact	intact	December_2015_(1)_fps_avg_aud.mp4	1	1	0.867054	5.9912e-06	1	down	red	0	0.477	low
407	8	4	0	auto	1.5	1.5169	yellow	1	down	down	GLO	left	far	1	intact	intact	May25_fps_avg_aud.mp4	1	0	0.909401	0	1	left	yellow	1	0.478	low
407	8	5	0	auto	1.5	1.51633	yellow	1	down	down	GLO	right	far	1	intact	intact	january_31_2016_fps_avg_aud.mp4	1	0	1.84219	0	1	left	yellow	1	0.479	low
407	8	6	0	auto	1.5	1.51704	green	1	down	down	GLO	left	close	1	intact	intact	May_18_2016_fps_avg_aud.mp4	1	0	1.48918	0	1	right	green	1	0.48	low
407	8	7	0	auto	1.5	1.51657	blue	1	right	right	GLO	left	close	1	intact	intact	93875f0f-82c8-483c-b71c-a32b6cf111d2_fps_avg_aud.mp4	1	28	0.869471	0.109766	2	up	blue	1	0.481	low
407	8	8	0	auto	1.5	1.51707	green	1	down	down	GLO	right	close	1	intact	intact	5b49bfdf-720d-437c-bb4f-da8fd9a14bdf_fps_avg_aud.mp4	1	0	1.14918	0	1	right	green	1	0.482	low
407	8	9	0	auto	1.5	1.51688	blue	1	down	down	GLO	left	far	0	intact	none	none	0	0	1.76679	0	1	up	blue	1	0.483	low
407	8	10	0	auto	1.5	1.51725	blue	0	up	up	GLO	right	far	0	intact	none	none	0	0	0.699512	0	1	up	blue	1	0.484	low
407	8	11	0	auto	1.5	1.51693	yellow	0	left	left	GLO	right	far	0	intact	none	none	0	0	0.66589	0	1	left	yellow	1	0.485	low
407	8	12	0	auto	1.5	1.5165	blue	0	up	up	GLO	right	far	1	intact	intact	9874ea15-f388-4d7d-ae5d-51013a69fee3_fps_avg_aud.mp4	1	0	1.76691	0	1	up	blue	1	0.486	low
407	8	13	0	auto	1.5	1.51553	blue	0	up	up	GLO	left	close	1	intact	intact	Jan5_fps_avg_aud.mp4	1	0	0.73301	0	1	up	blue	1	0.487	low
407	8	14	0	auto	1.5	1.5162	green	1	left	left	GLO	left	close	0	intact	none	none	0	0	1.78355	0	1	right	green	1	0.488	low
407	8	15	0	auto	1.5	1.51713	blue	0	up	up	GLO	left	close	0	intact	none	none	0	0	1.64976	0	1	up	blue	1	0.489	low
407	8	16	0	auto	1.5	1.51753	yellow	1	right	right	GLO	right	far	1	intact	intact	b23c9ea6-adb6-492c-965f-16af3f7801e9_fps_avg_aud.mp4	1	0	1.15099	0	1	left	yellow	1	0.49	low
407	8	17	0	auto	1.5	1.51747	green	0	right	right	GLO	left	far	0	intact	none	none	0	0	1.07326	0	1	right	green	1	0.491	low
407	8	18	0	auto	1.5	1.5171	green	0	right	right	GLO	right	far	1	intact	intact	0f23035e-0077-49bd-b516-950aa27b63b5_fps_avg_aud.mp4	1	0	1.84187	0	1	right	green	1	0.492	low
407	8	19	0	auto	1.5	1.51759	green	1	up	up	GLO	right	far	1	intact	intact	ac9d3ec9-e996-4c12-9cee-27057f644981_fps_avg_aud.mp4	1	0	0.899793	0	1	right	green	1	0.493	low
407	8	20	0	auto	1.5	1.51643	green	1	down	down	GLO	left	close	0	intact	none	none	0	0	1.0294	0	1	right	green	1	0.494	low
407	8	21	0	auto	1.5	1.51656	red	0	down	down	GLO	left	far	1	intact	intact	a390325a-c9a6-4240-9459-3271767e2980_fps_avg_aud.mp4	1	0	1.07783	0	1	down	red	1	0.495	low
407	8	22	0	auto	1.5	1.51625	green	1	up	up	GLO	left	far	0	intact	none	none	0	0	0.833968	0	1	right	green	1	0.496	low
407	8	23	0	auto	1.5	NaN	yellow	0	left	left	GLO	none	close	1	intact	intact	bbadcc83-10bb-4a2d-a28a-1d6b44f33770_fps_avg_aud.mp4	0	0	NaN	NaN	NaN	none	none	NaN	0.496	low
407	8	24	0	auto	1.5	NaN	blue	1	right	right	GLO	none	close	1	intact	intact	f10531c5-f8e7-4f38-bd6c-28ce29d75760_fps_avg_aud.mp4	0	0	NaN	NaN	NaN	none	none	NaN	0.496	low
407	8	25	0	auto	1.5	NaN	green	1	left	left	GLO	none	far	1	intact	intact	7720ddf1-f518-43df-bdba-7009c0432e63_fps_avg_aud.mp4	0	0	NaN	NaN	NaN	none	none	NaN	0.496	low
407	8	26	0	auto	1.5	NaN	yellow	0	left	left	GLO	none	close	1	intact	intact	ac2b9dfa-7a4b-40ef-9499-c883a9127ad7_fps_avg_aud.mp4	0	0	NaN	NaN	NaN	none	none	NaN	0.496	low
407	8	27	0	auto	1.5	NaN	green	0	right	right	GLO	none	far	0	intact	none	none	0	0	NaN	NaN	NaN	none	none	NaN	0.496	low
407	8	28	0	auto	1.5	NaN	yellow	1	down	down	GLO	none	close	1	intact	intact	e67cff3b-48fd-4045-95c8-a92189606742_fps_avg_aud.mp4	0	0	NaN	NaN	NaN	none	none	NaN	0.496	low
407	8	29	0	auto	1.5	NaN	yellow	0	left	left	GLO	none	close	1	intact	intact	Sep24_fps_avg_aud.mp4	0	0	NaN	NaN	NaN	none	none	NaN	0.496	low
407	8	30	0	auto	1.5	NaN	green	1	down	down	GLO	none	close	1	intact	intact	0602c0a8-082a-4bca-9f5b-70795017698f_fps_avg_aud.mp4	0	0	NaN	NaN	NaN	none	none	NaN	0.496	low
407	8	31	0	auto	1.5	NaN	red	0	down	down	GLO	none	close	1	intact	intact	1bfb8d40-5675-4acc-87b4-a7f11b6242ea_fps_avg_aud.mp4	0	0	NaN	NaN	NaN	none	none	NaN	0.496	low
407	8	32	0	auto	1.5	NaN	blue	0	up	up	GLO	none	far	0	intact	none	none	0	0	NaN	NaN	NaN	none	none	NaN	0.496	low
407	8	33	0	auto	1.5	NaN	green	1	down	down	GLO	none	far	1	intact	intact	Sep20_fps_avg_aud.mp4	0	0	NaN	NaN	NaN	none	none	NaN	0.496	low
407	8	34	0	auto	1.5	NaN	red	0	down	down	GLO	none	far	0	intact	none	none	0	0	NaN	NaN	NaN	none	none	NaN	0.496	low
407	8	35	0	auto	1.5	NaN	red	0	down	down	GLO	none	close	0	intact	none	none	0	0	NaN	NaN	NaN	none	none	NaN	0.496	low
407	8	36	0	auto	1.5	NaN	yellow	1	up	up	GLO	none	far	1	intact	intact	79665cdb-61c8-40fb-9ffc-0682e57caf2f_fps_avg_aud.mp4	0	0	NaN	NaN	NaN	none	none	NaN	0.496	low
407	8	37	0	auto	1.5	NaN	yellow	1	up	up	GLO	none	close	0	intact	none	none	0	0	NaN	NaN	NaN	none	none	NaN	0.496	low
407	9	1	0	self	1.5	1.51697	yellow	0	left	left	GLO	right	close	1	intact	intact	ea8c6916-8b70-4539-be72-29487b43dc07_fps_avg_aud.mp4	0	0	1.05009	0	1	left	yellow	1	0.497	low
407	9	2	0	self	1.5	1.51618	yellow	0	left	left	GLO	left	far	1	intact	intact	c3c668bd-3353-4887-b3ff-6d0225f5629c_fps_avg_aud.mp4	0	0	0.783967	0	1	left	yellow	1	0.498	low
407	9	3	0	self	1.5	1.51706	green	0	right	right	GLO	right	far	1	intact	intact	fd318c50-e133-4dc8-918b-b97094aebdf0_fps_avg_aud.mp4	0	0	0.633227	0	1	right	green	1	0.499	low
407	9	4	0	self	1.5	1.51683	blue	0	up	up	GLO	right	close	1	intact	intact	647890e0-5689-43cf-86ab-b37e61076130_fps_avg_aud.mp4	0	0	0.567553	0	1	up	blue	1	0.5	low
407	9	5	0	self	1.5	1.51666	green	1	left	left	GLO	left	far	1	intact	intact	73d0e54a-1b4c-4f00-a562-b71360349bdf_fps_avg_aud.mp4	0	0	1.31669	0	1	right	green	1	0.501	low
407	9	6	0	self	1.5	1.51721	yellow	1	down	down	GLO	left	close	1	intact	intact	June_112016_fps_avg_aud.mp4	0	0	0.615847	0	1	left	yellow	1	0.502	low
407	9	7	0	self	1.5	1.51604	yellow	0	left	left	GLO	left	close	1	intact	intact	ac670a32-9758-4aa8-b876-775cfe4f2e47_fps_avg_aud.mp4	0	0	0.851314	0	1	left	yellow	1	0.503	low
407	9	8	0	self	1.5	1.51701	blue	0	up	up	GLO	right	far	1	intact	intact	Apr16_fps_avg_aud.mp4	0	0	0.933329	0	1	up	blue	1	0.504	low
407	9	9	0	self	1.5	1.51713	green	1	up	up	GLO	right	far	1	intact	intact	Aug30_fps_avg_aud.mp4	0	0	0.849534	0	1	right	green	1	0.505	low
407	9	10	0	self	1.5	1.51692	blue	1	down	down	GLO	right	close	1	intact	intact	1b336470-7a10-4cc7-aee4-3a5e6e6e551e_fps_avg_aud.mp4	0	0	0.713555	0	1	up	blue	1	0.506	low
407	9	11	0	self	1.5	1.51696	green	0	right	right	GLO	left	close	1	intact	intact	July31_fps_avg_aud.mp4	0	0	0.708022	0	1	right	green	1	0.507	low
407	9	12	0	self	1.5	1.51652	blue	0	up	up	GLO	left	far	1	intact	intact	ea6675d4-3684-48c3-9bd0-c32d38c48c9e_fps_avg_aud.mp4	0	0	0.732918	0	1	up	blue	1	0.508	low
407	9	13	0	self	1.5	1.51658	blue	0	up	up	GLO	left	far	1	intact	intact	f1caa1d5-1230-4918-b000-58763883bff3_fps_avg_aud.mp4	0	0	0.714159	0	1	up	blue	1	0.509	low
407	9	14	0	self	1.5	1.51701	yellow	1	up	up	GLO	right	far	1	intact	intact	Feb13_fps_avg_aud.mp4	0	0	0.549869	0	1	left	yellow	1	0.51	low
407	9	15	0	self	1.5	1.51623	green	1	down	down	GLO	right	far	1	intact	intact	July3_fps_avg_aud.mp4	0	0	1.31266	0	1	right	green	1	0.511	low
407	9	16	0	self	1.5	1.51717	red	1	up	up	GLO	right	far	1	intact	intact	e67cff3b-48fd-4045-95c8-a92189606742_fps_avg_aud.mp4	0	0	0.916326	0	1	down	red	1	0.512	low
407	9	17	0	self	1.5	1.51763	yellow	0	left	left	GLO	right	close	1	intact	intact	June_2016_(2)_fps_avg_aud.mp4	0	0	0.64965	0	1	left	yellow	1	0.513	low
407	9	18	0	self	1.5	1.51682	red	1	right	right	GLO	left	far	1	intact	intact	e6c6cdbe-2a63-4eeb-b544-6fc0a25dc157_fps_avg_aud.mp4	0	0	0.933798	0	1	down	red	1	0.514	low
407	9	19	0	self	1.5	1.51724	red	0	down	down	GLO	left	far	1	intact	intact	Nov7_fps_avg_aud.mp4	0	0	0.715345	0	1	down	red	1	0.515	low
407	9	20	0	self	1.5	1.51719	red	1	right	right	GLO	left	far	1	intact	intact	af8a1933-c829-43c1-8393-4abd55081a1d_fps_avg_aud.mp4	0	0	0.692603	0	1	down	red	1	0.516	low
407	9	21	0	self	1.5	1.51586	green	0	right	right	GLO	right	far	1	intact	intact	bca3f84c-663e-49dd-9b23-05262dbf1e96_fps_avg_aud.mp4	0	0	1.8341	0	1	right	green	1	0.517	low
407	9	22	0	self	1.5	1.51741	yellow	1	down	down	GLO	left	far	1	intact	intact	591cd28e-3b15-449a-b19f-e2e7cabcd7ba_fps_avg_aud.mp4	0	0	1.61109	0	1	left	yellow	1	0.518	low
407	9	23	0	self	1.5	1.51571	yellow	0	left	left	GLO	right	far	1	intact	intact	Jan8_fps_avg_aud.mp4	0	0	0.783018	0	1	left	yellow	1	0.519	low
407	9	24	0	self	1.5	1.51729	blue	1	right	right	GLO	left	far	1	intact	intact	226bfd42-14d0-45a1-82ba-233f4ddec70a_fps_avg_aud.mp4	0	0	0.990685	0	1	up	blue	1	0.52	low
407	9	25	0	self	1.5	1.51749	green	1	up	up	GLO	left	far	1	intact	intact	240bdf76-9a30-49ea-9534-079281412955_fps_avg_aud.mp4	0	0	2.47914	0	1	right	green	1	0.521	low
407	9	26	0	self	1.5	NaN	blue	1	down	down	GLO	none	close	1	intact	intact	c5792f9d-c420-493b-acf2-46528babd08c_fps_avg_aud.mp4	0	0	NaN	NaN	NaN	none	none	NaN	0.521	low
407	9	27	0	self	1.5	NaN	blue	0	up	up	GLO	none	far	1	intact	intact	491f864e-d652-4cca-82ba-d023f3192016_fps_avg_aud.mp4	0	0	NaN	NaN	NaN	none	none	NaN	0.521	low
407	9	28	0	self	1.5	NaN	red	1	right	right	GLO	none	far	1	intact	intact	October_2015_fps_avg_aud.mp4	0	0	NaN	NaN	NaN	none	none	NaN	0.521	low
407	9	29	0	self	1.5	NaN	yellow	0	left	left	GLO	none	close	1	intact	intact	02831e99-5ac8-4fc5-9e76-9a04224fb33e_fps_avg_aud.mp4	0	0	NaN	NaN	NaN	none	none	NaN	0.521	low
407	9	30	0	self	1.5	NaN	red	0	down	down	GLO	none	close	1	intact	intact	f86e1967-f74c-492a-93b0-8eac09649762_fps_avg_aud.mp4	0	0	NaN	NaN	NaN	none	none	NaN	0.521	low
407	9	31	0	self	1.5	NaN	blue	1	down	down	GLO	none	far	1	intact	intact	8d515f52-784f-4547-b4bd-dfedabc9c31a_fps_avg_aud.mp4	0	0	NaN	NaN	NaN	none	none	NaN	0.521	low
407	9	32	0	self	1.5	NaN	red	0	down	down	GLO	none	close	1	intact	intact	caf1693c-0eef-47ff-aee9-5348af86759e_fps_avg_aud.mp4	0	0	NaN	NaN	NaN	none	none	NaN	0.521	low
407	9	33	0	self	1.5	NaN	green	0	right	right	GLO	none	close	1	intact	intact	Mar8_fps_avg_aud.mp4	0	0	NaN	NaN	NaN	none	none	NaN	0.521	low
407	9	34	0	self	1.5	NaN	yellow	1	down	down	GLO	none	close	1	intact	intact	deff750b-b4a4-440e-a47d-eb4c56f93a9d_fps_avg_aud.mp4	0	0	NaN	NaN	NaN	none	none	NaN	0.521	low
407	9	35	0	self	1.5	NaN	blue	0	up	up	GLO	none	far	1	intact	intact	Feb29_fps_avg_aud.mp4	0	0	NaN	NaN	NaN	none	none	NaN	0.521	low
407	9	36	0	self	1.5	NaN	yellow	1	up	up	GLO	none	close	1	intact	intact	Dec30_fps_avg_aud.mp4	0	0	NaN	NaN	NaN	none	none	NaN	0.521	low
407	9	37	0	self	1.5	NaN	red	1	left	left	GLO	none	far	1	intact	intact	058bdf98-bb64-4851-92f5-ffad71866ee8_fps_avg_aud.mp4	0	0	NaN	NaN	NaN	none	none	NaN	0.521	low
407	10	1	0	auto	1.5	1.5171	blue	0	up	up	GLO	right	close	1	intact	intact	cb6ef54e-2b4c-4064-8d68-1ca2b2e8a47c_fps_avg_aud.mp4	1	0	0.984623	0	1	up	blue	1	0.531	high
407	10	2	0	auto	1.5	1.51737	blue	1	down	down	GLO	left	close	0	intact	none	none	0	0	0.833769	0	1	up	blue	1	0.541	high
407	10	3	0	auto	1.5	1.51704	blue	1	down	down	GLO	left	far	1	intact	intact	b35409aa-6325-4736-bc0d-526af5b26b83_fps_avg_aud.mp4	1	0	0.799883	0	1	up	blue	1	0.551	high
407	10	4	0	auto	1.5	1.51649	yellow	1	right	right	GLO	left	close	1	intact	intact	b151d8a6-cbea-4f58-ab0f-6c21bc545c88_fps_avg_aud.mp4	1	0	0.83662	0	1	left	yellow	1	0.561	high
407	10	5	0	auto	1.5	1.51692	green	1	up	up	GLO	right	close	0	intact	none	none	0	0	0.634456	0	1	right	green	1	0.571	high
407	10	6	0	auto	1.5	1.51728	green	0	right	right	GLO	left	far	1	intact	intact	Jun30_fps_avg_aud.mp4	1	0	0.616167	0	1	right	green	1	0.581	high
407	10	7	0	auto	1.5	1.51684	red	0	down	down	GLO	right	far	0	intact	none	none	0	0	0.700444	0	1	down	red	1	0.591	high
407	10	8	0	auto	1.5	1.51754	green	0	right	right	GLO	right	close	1	intact	intact	01eb0290-d17b-4697-b87a-733d1ecfc12d_fps_avg_aud.mp4	1	0	0.763902	0	1	right	green	1	0.601	high
407	10	9	0	auto	1.5	1.51731	green	1	left	left	GLO	left	close	0	intact	none	none	0	0	0.609359	0	1	right	green	1	0.611	high
407	10	10	0	auto	1.5	1.51648	yellow	1	down	down	GLO	left	far	1	intact	intact	Otober_11_2016_fps_avg_aud.mp4	1	0	1.04504	0	1	left	yellow	1	0.621	high
407	10	11	0	auto	1.5	1.51684	yellow	0	left	left	GLO	right	far	1	intact	intact	b1dabac3-204f-4571-b892-69eb87e805d0_fps_avg_aud.mp4	1	0	0.715187	0	1	left	yellow	1	0.631	high
407	10	12	0	auto	1.5	1.5169	blue	1	right	right	GLO	left	close	1	intact	intact	a066c606-67e2-4c5d-b13d-471a21a18633_fps_avg_aud.mp4	1	0	1.06673	0	1	up	blue	1	0.641	high
407	10	13	0	auto	1.5	1.51685	green	1	up	up	GLO	right	close	1	intact	intact	61be81ef-2338-498f-a09a-fd23aea0f3ec_fps_avg_aud.mp4	1	0	0.699422	0	1	right	green	1	0.651	high
407	10	14	0	auto	1.5	1.51624	yellow	1	right	right	GLO	left	far	0	intact	none	none	0	0	0.617284	0	1	left	yellow	1	0.661	high
407	10	15	0	auto	1.5	1.51709	red	0	down	down	GLO	right	far	1	intact	intact	8c9efcf8-40ef-4975-90f5-9d2449140a05_fps_avg_aud.mp4	1	0	0.767125	0	1	down	red	1	0.671	high
407	10	16	0	auto	1.5	1.51683	yellow	1	up	up	GLO	right	close	0	intact	none	none	0	0	0.733368	0	1	left	yellow	1	0.681	high
407	10	17	0	auto	1.5	1.51695	yellow	1	up	up	GLO	right	far	1	intact	intact	caf1693c-0eef-47ff-aee9-5348af86759e_fps_avg_aud.mp4	1	0	0.627978	0	1	left	yellow	1	0.691	high
407	10	18	0	auto	1.5	1.5171	green	0	right	right	GLO	left	close	1	intact	intact	Nov1_fps_avg_aud.mp4	1	0	0.705567	0	1	right	green	1	0.701	high
407	10	19	0	auto	1.5	1.51693	yellow	0	left	left	GLO	right	far	0	intact	none	none	0	0	0.616929	0	1	left	yellow	1	0.711	high
407	10	20	0	auto	1.5	1.51708	blue	0	up	up	GLO	right	far	1	intact	intact	75c41469-2e99-4ed0-b25f-04259686f11b_fps_avg_aud.mp4	1	0	0.773093	0	1	up	blue	1	0.721	high
407	10	21	0	auto	1.5	1.51709	yellow	1	up	up	GLO	left	far	1	intact	intact	September_2016_(3)_fps_avg_aud.mp4	1	0	0.583239	0	1	left	yellow	1	0.731	high
407	10	22	0	auto	1.5	1.51635	blue	0	up	up	GLO	right	far	1	intact	intact	c6481c95-a5c1-4e4c-bc78-4d2184182dd4_fps_avg_aud.mp4	1	0	0.811722	0	1	up	blue	1	0.741	high
407	10	23	0	auto	1.5	1.51628	yellow	1	right	right	GLO	left	close	1	intact	intact	Dec30_fps_avg_aud.mp4	1	0	0.628072	0	1	left	yellow	1	0.751	high
407	10	24	0	auto	1.5	1.51684	blue	1	right	right	GLO	right	far	1	intact	intact	ac670a32-9758-4aa8-b876-775cfe4f2e47_fps_avg_aud.mp4	1	0	1.16151	0	1	up	blue	1	0.761	high
407	10	25	0	auto	1.5	1.51656	yellow	1	down	down	GLO	right	close	0	intact	none	none	0	0	1.19947	0	1	left	yellow	1	0.771	high
407	10	26	0	auto	1.5	1.51729	green	1	up	up	GLO	left	close	0	intact	none	none	0	0	0.783226	0	1	right	green	1	0.781	high
407	10	27	0	auto	1.5	NaN	green	0	right	right	GLO	none	far	1	intact	intact	Jul10_fps_avg_aud.mp4	0	0	NaN	NaN	NaN	none	none	NaN	0.781	high
407	10	28	0	auto	1.5	NaN	red	1	up	up	GLO	none	far	0	intact	none	none	0	0	NaN	NaN	NaN	none	none	NaN	0.781	high
407	10	29	0	auto	1.5	NaN	green	1	down	down	GLO	none	close	0	intact	none	none	0	0	NaN	NaN	NaN	none	none	NaN	0.781	high
407	10	30	0	auto	1.5	NaN	blue	1	left	left	GLO	none	far	0	intact	none	none	0	0	NaN	NaN	NaN	none	none	NaN	0.781	high
407	10	31	0	auto	1.5	NaN	yellow	1	down	down	GLO	none	close	1	intact	intact	f5740bdb-f6a7-4842-9fa8-065f8eed57f4_fps_avg_aud.mp4	0	0	NaN	NaN	NaN	none	none	NaN	0.781	high
407	10	32	0	auto	1.5	NaN	red	0	down	down	GLO	none	close	0	intact	none	none	0	0	NaN	NaN	NaN	none	none	NaN	0.781	high
407	10	33	0	auto	1.5	NaN	green	1	left	left	GLO	none	far	1	intact	intact	9df4c83d-45cc-4501-be4d-279a04192ba4_fps_avg_aud.mp4	0	0	NaN	NaN	NaN	none	none	NaN	0.781	high
407	10	34	0	auto	1.5	NaN	red	0	down	down	GLO	none	close	0	intact	none	none	0	0	NaN	NaN	NaN	none	none	NaN	0.781	high
407	10	35	0	auto	1.5	NaN	green	1	up	up	GLO	none	close	1	intact	intact	Mar14_fps_avg_aud.mp4	0	0	NaN	NaN	NaN	none	none	NaN	0.781	high
407	10	36	0	auto	1.5	NaN	yellow	0	left	left	GLO	none	far	1	intact	intact	838aaec1-d86d-4006-a165-4cb3e5f6444b_fps_avg_aud.mp4	0	0	NaN	NaN	NaN	none	none	NaN	0.781	high
407	10	37	0	auto	1.5	NaN	green	1	left	left	GLO	none	far	1	intact	intact	a286ef4d-f7bf-4cc1-b7c2-912b53e8ea4a_fps_avg_aud.mp4	0	0	NaN	NaN	NaN	none	none	NaN	0.781	high
407	11	1	0	self	1.5	1.51586	blue	0	up	up	GLO	left	close	1	intact	intact	Oct7_fps_avg_aud.mp4	0	0	1.75025	0	1	up	blue	1	0.791	high
407	11	2	0	self	1.5	1.51624	yellow	0	left	left	GLO	right	close	1	intact	intact	e4815a42-3a54-463e-aeba-1230af20106d_fps_avg_aud.mp4	0	0	0.481808	0	1	left	yellow	1	0.801	high
407	11	3	0	self	1.5	1.51621	red	0	down	down	GLO	left	far	1	intact	intact	ea8c6916-8b70-4539-be72-29487b43dc07_fps_avg_aud.mp4	0	0	0.683671	0	1	down	red	1	0.811	high
407	11	4	0	self	1.5	1.51705	blue	0	up	up	GLO	right	close	1	intact	intact	326ee18c-0cd5-4c39-ac0f-082f53449aa4_fps_avg_aud.mp4	0	0	0.733197	0	1	up	blue	1	0.821	high
407	11	5	0	self	1.5	1.51602	yellow	0	left	left	GLO	right	far	1	intact	intact	030a135d-605a-42ea-902a-469aeded471a_fps_avg_aud.mp4	0	0	0.517116	0	1	left	yellow	1	0.831	high
407	11	6	0	self	1.5	1.51724	red	0	down	down	GLO	left	close	1	intact	intact	592c03b4-010b-4f30-8521-fbf254e827b0_fps_avg_aud.mp4	0	0	0.699523	0	1	down	red	1	0.841	high
407	11	7	0	self	1.5	1.51724	green	0	right	right	GLO	left	close	1	intact	intact	Feb13_fps_avg_aud.mp4	0	0	0.56661	0	1	right	green	1	0.851	high
407	11	8	0	self	1.5	1.51607	green	1	left	left	GLO	right	close	1	intact	intact	7c00c850-e528-473f-895e-ee9be83c7963_fps_avg_aud.mp4	0	0	0.724139	0	1	right	green	1	0.861	high
407	11	9	0	self	1.5	1.51731	red	0	down	down	GLO	left	far	1	intact	intact	Apr4_fps_avg_aud.mp4	0	0	0.96656	0	1	down	red	1	0.871	high
407	11	10	0	self	1.5	1.51732	green	0	right	right	GLO	left	close	1	intact	intact	05a4f0ad-5d14-4bd5-8c2b-7db284b369ce_fps_avg_aud.mp4	0	0	0.67404	0	1	right	green	1	0.881	high
407	11	11	0	self	1.5	1.51637	yellow	1	right	right	GLO	left	far	1	intact	intact	5b8d6efa-e1ab-4dc5-b720-51d467e90859_fps_avg_aud.mp4	0	0	0.699222	0	1	left	yellow	1	0.891	high
407	11	12	0	self	1.5	1.51716	yellow	0	left	left	GLO	right	far	1	intact	intact	359d82dd-3d4c-4029-a89b-66422745c056_fps_avg_aud.mp4	0	0	0.560734	0	1	left	yellow	1	0.901	high
407	11	13	0	self	1.5	1.51751	green	1	left	left	GLO	right	far	1	intact	intact	c4382136-d60d-4fd0-872b-23cb9269b725_fps_avg_aud.mp4	0	0	0.698981	0	1	right	green	1	0.911	high
407	11	14	0	self	1.5	1.51716	yellow	0	left	left	GLO	right	far	1	intact	intact	Jan4_fps_avg_aud.mp4	0	0	0.615628	0	1	left	yellow	1	0.921	high
407	11	15	0	self	1.5	1.51638	yellow	0	left	left	GLO	right	close	1	intact	intact	4f243f72-5a08-4b19-aa43-2448c9f0545d_fps_avg_aud.mp4	0	0	0.48232	0	1	left	yellow	1	0.931	high
407	11	16	0	self	1.5	1.51707	green	1	left	left	GLO	right	far	1	intact	intact	980b240d-9e79-4cca-81da-f6d711752962_fps_avg_aud.mp4	0	0	0.599774	0	1	right	green	1	0.941	high
407	11	17	0	self	1.5	1.51626	blue	0	up	up	GLO	right	far	1	intact	intact	6189325b-e315-4417-8d81-a8cae54059df_fps_avg_aud.mp4	0	0	0.666803	0	1	up	blue	1	0.951	high
407	11	18	0	self	1.5	1.51612	red	0	down	down	GLO	right	far	1	intact	intact	240bdf76-9a30-49ea-9534-079281412955_fps_avg_aud.mp4	0	0	0.633212	0	1	down	red	1	0.961	high
407	11	19	0	self	1.5	1.51583	red	1	right	right	GLO	right	close	1	intact	intact	38a0ff6f-f976-4235-af7e-49859d376c46_fps_avg_aud.mp4	0	0	0.859185	0	1	down	red	1	0.971	high
407	11	20	0	self	1.5	1.51588	red	1	up	up	GLO	left	far	1	intact	intact	9e99d645-5200-4298-9c0f-4a18ab570a6d_fps_avg_aud.mp4	0	0	0.833134	0	1	down	red	1	0.981	high
407	11	21	0	self	1.5	1.51639	green	0	right	right	GLO	right	close	1	intact	intact	bb75a9e7-75e9-4641-8e0c-ecaabf7a7e69(1)_fps_avg_aud.mp4	0	0	0.582838	0	1	right	green	1	0.991	high
407	11	22	0	self	1.5	1.51734	yellow	1	up	up	GLO	left	far	1	intact	intact	Mar3_fps_avg_aud.mp4	0	0	0.597316	0	1	left	yellow	1	1.001	high
407	11	23	0	self	1.5	1.51694	blue	1	right	right	GLO	left	close	1	intact	intact	fc2af016-0a80-4148-823b-d9176c33cf3a_fps_avg_aud.mp4	0	0	0.684445	0	1	up	blue	1	1.011	high
407	11	24	0	self	1.5	1.51728	blue	1	right	right	GLO	left	close	1	intact	intact	Jun20_fps_avg_aud.mp4	0	0	0.647287	0	1	up	blue	1	1.021	high
407	11	25	0	self	1.5	1.51677	red	0	down	down	GLO	left	far	1	intact	intact	b2f11719-a2c9-405c-93a2-abd13a835201_fps_avg_aud.mp4	0	0	0.749585	0	1	down	red	1	1.031	high
