ID	Block	Trials	Practice	VideoStart	ITI	ITI_measured	Color	Conflict	Global	Local	Task	Video_pos	Video_dist	Video_present	Video_cat_cond	Video_cat	Video	VideoPlayed	VideoCheck	RT	DT	Visits	KeyPress	KeyColor	Correct	Reward	RewardCond
409	1	1	1	none	1.5	1.48537	blue	0	up	up	GLO	right	close	0	intact	none	none	0	0	2.51346	0	1	up	blue	1	0	0
409	1	2	1	none	1.5	1.51292	red	0	down	down	GLO	left	close	0	intact	none	none	0	0	2.2918	0	1	down	red	1	0	0
409	1	3	1	none	1.5	1.51357	blue	0	up	up	GLO	left	far	0	intact	none	none	0	0	1.67378	0	1	up	blue	1	0	0
409	1	4	1	none	1.5	1.51626	red	1	left	left	GLO	right	far	0	intact	none	none	0	0	1.49042	0	1	down	red	1	0	0
409	1	5	1	none	1.5	1.51407	blue	0	up	up	GLO	left	close	0	intact	none	none	0	0	0.976185	0	1	up	blue	1	0	0
409	1	6	1	none	1.5	1.51269	yellow	1	right	right	GLO	left	far	0	intact	none	none	0	0	1.48419	0	1	left	yellow	1	0	0
409	1	7	1	none	1.5	1.51109	green	1	down	down	GLO	left	far	0	intact	none	none	0	0	1.23036	0	1	right	green	1	0	0
409	1	8	1	none	1.5	1.50958	yellow	0	left	left	GLO	right	far	0	intact	none	none	0	0	0.839903	0	1	left	yellow	1	0	0
409	1	9	1	none	1.5	1.5115	yellow	1	down	down	GLO	left	close	0	intact	none	none	0	0	0.781613	0	1	left	yellow	1	0	0
409	1	10	1	none	1.5	1.51572	red	1	up	up	GLO	left	close	0	intact	none	none	0	0	1.43362	0	1	down	red	1	0	0
409	1	11	1	none	1.5	1.51534	green	1	up	up	GLO	left	close	0	intact	none	none	0	0	1.19137	0	1	right	green	1	0	0
409	1	12	1	none	1.5	1.51526	blue	0	up	up	GLO	left	far	0	intact	none	none	0	0	1.37081	0	1	up	blue	1	0	0
409	1	13	1	none	1.5	1.51275	red	0	down	down	GLO	left	far	0	intact	none	none	0	0	0.979705	0	1	down	red	1	0	0
409	1	14	1	none	1.5	1.51477	red	1	right	right	GLO	right	close	0	intact	none	none	0	0	1.13718	0	1	down	red	1	0	0
409	1	15	1	none	1.5	1.51431	green	0	right	right	GLO	right	far	0	intact	none	none	0	0	1.288	0	1	right	green	1	0	0
409	1	16	1	none	1.5	1.51599	red	0	down	down	GLO	right	far	0	intact	none	none	0	0	1.42792	0	1	down	red	1	0	0
409	1	17	1	none	1.5	1.51631	blue	1	down	down	GLO	right	close	0	intact	none	none	0	0	0.885924	0	1	up	blue	1	0	0
409	1	18	1	none	1.5	1.51493	blue	0	up	up	GLO	left	close	0	intact	none	none	0	0	0.877353	0	1	up	blue	1	0	0
409	1	19	1	none	1.5	1.51656	blue	0	up	up	GLO	right	far	0	intact	none	none	0	0	0.740112	0	1	up	blue	1	0	0
409	1	20	1	none	1.5	1.51564	red	0	down	down	GLO	left	close	0	intact	none	none	0	0	0.932914	0	1	down	red	1	0	0
409	1	21	1	none	1.5	1.51668	blue	0	up	up	GLO	right	far	0	intact	none	none	0	0	0.908297	0	1	up	blue	1	0	0
409	1	22	1	none	1.5	1.5134	red	1	up	up	GLO	right	close	0	intact	none	none	0	0	0.917151	0	1	down	red	1	0	0
409	1	23	1	none	1.5	1.51116	blue	1	down	down	GLO	left	close	0	intact	none	none	0	0	0.716514	0	1	up	blue	1	0	0
409	1	24	1	none	1.5	1.51199	blue	1	down	down	GLO	right	close	0	intact	none	none	0	0	0.655223	0	1	up	blue	1	0	0
409	1	25	1	none	1.5	1.51256	red	0	down	down	GLO	left	close	0	intact	none	none	0	0	0.59971	0	1	down	red	1	0	0
409	1	26	1	none	1.5	1.51361	yellow	0	left	left	GLO	right	close	0	intact	none	none	0	0	1.04123	0	1	left	yellow	1	0	0
409	1	27	1	none	1.5	1.51431	blue	1	down	down	GLO	right	far	0	intact	none	none	0	0	0.908623	0	1	up	blue	1	0	0
409	1	28	1	none	1.5	1.51198	yellow	0	left	left	GLO	right	far	0	intact	none	none	0	0	1.1535	0	1	left	yellow	1	0	0
409	1	29	1	none	1.5	1.51568	green	1	up	up	GLO	left	close	0	intact	none	none	0	0	0.670401	0	1	right	green	1	0	0
409	1	30	1	none	1.5	1.51301	yellow	0	left	left	GLO	left	far	0	intact	none	none	0	0	0.500593	0	1	left	yellow	1	0	0
409	1	31	1	none	1.5	1.51176	blue	1	right	right	GLO	left	far	0	intact	none	none	0	0	0.608976	0	1	up	blue	1	0	0
409	1	32	1	none	0.5	0.511472	blue	0	up	up	GLO	left	far	0	intact	none	none	0	0	0.700041	0	1	up	blue	1	0	0
409	1	33	1	none	0.5	0.511888	red	0	down	down	GLO	right	far	0	intact	none	none	0	0	0.683018	0	1	down	red	1	0	0
409	1	34	1	none	0.5	0.509183	yellow	1	right	right	GLO	right	close	0	intact	none	none	0	0	0.800031	0	1	left	yellow	1	0	0
409	1	35	1	none	0.5	0.51341	yellow	1	down	down	GLO	left	far	0	intact	none	none	0	0	0.700872	0	1	left	yellow	1	0	0
409	1	36	1	none	0.5	0.514735	yellow	0	left	left	GLO	right	close	0	intact	none	none	0	0	0.551082	0	1	left	yellow	1	0	0
409	1	37	1	none	0.5	0.51191	yellow	0	left	left	GLO	right	far	0	intact	none	none	0	0	0.550149	0	1	left	yellow	1	0	0
409	1	38	1	none	0.5	0.515271	blue	0	up	up	GLO	right	close	0	intact	none	none	0	0	0.796853	0	1	up	blue	1	0	0
409	1	39	1	none	0.5	0.511781	blue	0	up	up	GLO	right	far	0	intact	none	none	0	0	0.65028	0	1	up	blue	1	0	0
409	1	40	1	none	0.5	0.513993	red	0	down	down	GLO	left	close	0	intact	none	none	0	0	0.705535	0	1	down	red	1	0	0
409	1	41	1	none	0.5	0.513826	red	0	down	down	GLO	left	close	0	intact	none	none	0	0	0.700487	0	1	down	red	1	0	0
409	1	42	1	none	0.5	0.511174	red	1	up	up	GLO	left	close	0	intact	none	none	0	0	1.5627	0	1	down	red	1	0	0
409	1	43	1	none	0.5	0.512914	green	1	left	left	GLO	left	close	0	intact	none	none	0	0	0.981141	0	1	right	green	1	0	0
409	1	44	1	none	0.5	0.514383	red	0	down	down	GLO	right	far	0	intact	none	none	0	0	0.833836	0	1	down	red	1	0	0
409	1	45	1	none	0.5	0.509961	yellow	1	right	right	GLO	left	close	0	intact	none	none	0	0	0.750326	0	1	left	yellow	1	0	0
409	1	46	1	none	0.5	0.512961	green	0	right	right	GLO	right	close	0	intact	none	none	0	0	0.617144	0	1	right	green	1	0	0
409	1	47	1	none	0.5	0.512073	blue	0	up	up	GLO	left	far	0	intact	none	none	0	0	1.48301	0	1	up	blue	1	0	0
409	1	48	1	none	0.5	0.51475	green	0	right	right	GLO	left	close	0	intact	none	none	0	0	1.14996	0	1	right	green	1	0	0
409	1	49	1	none	0.5	0.510839	blue	1	left	left	GLO	left	far	0	intact	none	none	0	0	1.16756	0	1	up	blue	1	0	0
409	1	50	1	none	0.5	0.513965	green	1	up	up	GLO	left	close	0	intact	none	none	0	0	0.932441	0	1	right	green	1	0	0
409	1	51	1	none	0.5	0.513458	blue	0	up	up	GLO	left	close	0	intact	none	none	0	0	0.684024	0	1	up	blue	1	0	0
409	1	52	1	none	0.5	0.512219	red	1	left	left	GLO	right	far	0	intact	none	none	0	0	1.12994	0	1	down	red	1	0	0
409	1	53	1	none	0.5	0.514542	yellow	0	left	left	GLO	right	far	0	intact	none	none	0	0	0.899567	0	1	left	yellow	1	0	0
409	1	54	1	none	0.5	0.513595	blue	1	right	right	GLO	right	close	0	intact	none	none	0	0	0.814414	0	1	up	blue	1	0	0
409	1	55	1	none	0.5	0.512601	yellow	0	left	left	GLO	right	close	0	intact	none	none	0	0	0.847128	0	1	left	yellow	1	0	0
409	1	56	1	none	0.5	0.511033	green	0	right	right	GLO	left	far	0	intact	none	none	0	0	0.63251	0	1	right	green	1	0	0
409	1	57	1	none	0.5	0.516441	blue	0	up	up	GLO	left	far	0	intact	none	none	0	0	0.543118	0	1	up	blue	1	0	0
409	1	58	1	none	0.5	0.516538	red	1	left	left	GLO	left	far	0	intact	none	none	0	0	0.582826	0	1	down	red	1	0	0
409	1	59	1	none	0.5	0.512285	red	0	down	down	GLO	left	far	0	intact	none	none	0	0	0.750286	0	1	down	red	1	0	0
409	1	60	1	none	0.5	0.513482	red	1	up	up	GLO	right	far	0	intact	none	none	0	0	0.486368	0	1	down	red	1	0	0
409	1	61	1	none	0.5	0.515981	blue	1	left	left	GLO	right	close	0	intact	none	none	0	0	0.618694	0	1	left	yellow	0	0	0
409	1	62	1	none	0.5	0.512376	blue	1	right	right	GLO	left	far	0	intact	none	none	0	0	0.847096	0	1	up	blue	1	0	0
409	1	63	1	none	0.5	0.513371	green	1	left	left	GLO	right	close	0	intact	none	none	0	0	0.866255	0	1	right	green	1	0	0
409	1	64	1	none	0.5	0.512755	yellow	1	up	up	GLO	right	far	0	intact	none	none	0	0	0.800209	0	1	left	yellow	1	0	0
409	1	65	1	none	0.5	0.513181	green	0	right	right	GLO	right	close	0	intact	none	none	0	0	1.50001	0	1	right	green	1	0	0
409	1	66	1	none	0.5	0.510295	yellow	0	left	left	GLO	left	far	0	intact	none	none	0	0	0.768417	0	1	left	yellow	1	0	0
409	1	67	1	none	0.5	0.51399	yellow	1	down	down	GLO	right	far	0	intact	none	none	0	0	0.611325	0	1	left	yellow	1	0	0
409	1	68	1	none	0.5	0.51635	blue	1	down	down	GLO	right	close	0	intact	none	none	0	0	0.583974	0	1	up	blue	1	0	0
409	1	69	1	none	0.5	0.511684	red	1	right	right	GLO	right	far	0	intact	none	none	0	0	1.11681	0	1	down	red	1	0	0
409	1	70	1	none	0.5	0.514855	yellow	0	left	left	GLO	left	far	0	intact	none	none	0	0	1.31742	0	1	left	yellow	1	0	0
409	1	71	1	none	0.5	0.516855	yellow	0	left	left	GLO	right	far	0	intact	none	none	0	0	0.494682	0	1	left	yellow	1	0	0
409	1	72	1	none	0.5	0.511903	green	0	right	right	GLO	left	far	0	intact	none	none	0	0	0.599889	0	1	right	green	1	0	0
409	1	73	1	none	0.5	0.513828	red	0	down	down	GLO	right	far	0	intact	none	none	0	0	0.786391	0	1	down	red	1	0	0
409	1	74	1	none	0.5	0.51675	red	1	right	right	GLO	right	far	0	intact	none	none	0	0	0.751341	0	1	down	red	1	0	0
409	1	75	1	none	0.5	0.511582	yellow	0	left	left	GLO	left	close	0	intact	none	none	0	0	1.05065	0	1	left	yellow	1	0	0
409	1	76	1	none	0.5	0.510927	yellow	1	up	up	GLO	left	close	0	intact	none	none	0	0	0.701169	0	1	left	yellow	1	0	0
409	1	77	1	none	0.5	0.51146	yellow	1	up	up	GLO	left	close	0	intact	none	none	0	0	0.57366	0	1	left	yellow	1	0	0
409	1	78	1	none	0.5	0.514937	yellow	1	down	down	GLO	left	far	0	intact	none	none	0	0	0.613037	0	1	left	yellow	1	0	0
409	1	79	1	none	0.5	0.512984	blue	0	up	up	GLO	left	close	0	intact	none	none	0	0	0.583742	0	1	up	blue	1	0	0
409	1	80	1	none	0.5	0.509516	green	0	right	right	GLO	right	close	0	intact	none	none	0	0	0.713333	0	1	right	green	1	0	0
409	1	81	1	none	0.5	0.510973	blue	0	up	up	GLO	right	far	0	intact	none	none	0	0	0.935174	0	1	up	blue	1	0	0
409	1	82	1	none	0.5	0.51351	yellow	1	down	down	GLO	right	far	0	intact	none	none	0	0	0.863718	0	1	left	yellow	1	0	0
409	1	83	1	none	0.5	0.510775	yellow	0	left	left	GLO	left	far	0	intact	none	none	0	0	0.600706	0	1	left	yellow	1	0	0
409	1	84	1	none	0.5	0.514584	green	0	right	right	GLO	left	far	0	intact	none	none	0	0	0.652945	0	1	right	green	1	0	0
409	1	85	1	none	0.5	0.515671	green	0	right	right	GLO	left	close	0	intact	none	none	0	0	0.6208	0	1	right	green	1	0	0
409	1	86	1	none	0.5	0.515548	yellow	0	left	left	GLO	left	close	0	intact	none	none	0	0	0.503502	0	1	left	yellow	1	0	0
409	1	87	1	none	0.5	0.510073	red	0	down	down	GLO	left	far	0	intact	none	none	0	0	0.767532	0	1	down	red	1	0	0
409	1	88	1	none	0.5	0.512305	blue	1	right	right	GLO	right	far	0	intact	none	none	0	0	0.561596	0	1	up	blue	1	0	0
409	1	89	1	none	0.5	NaN	green	1	down	down	GLO	none	close	0	intact	none	none	0	0	NaN	NaN	NaN	none	none	NaN	0	0
409	1	90	1	none	0.5	NaN	green	0	right	right	GLO	none	far	0	intact	none	none	0	0	NaN	NaN	NaN	none	none	NaN	0	0
409	1	91	1	none	0.5	NaN	blue	1	left	left	GLO	none	close	0	intact	none	none	0	0	NaN	NaN	NaN	none	none	NaN	0	0
409	1	92	1	none	0.5	NaN	blue	1	right	right	GLO	none	far	0	intact	none	none	0	0	NaN	NaN	NaN	none	none	NaN	0	0
409	1	93	1	none	0.5	NaN	red	1	right	right	GLO	none	far	0	intact	none	none	0	0	NaN	NaN	NaN	none	none	NaN	0	0
409	1	94	1	none	0.5	NaN	blue	1	left	left	GLO	none	close	0	intact	none	none	0	0	NaN	NaN	NaN	none	none	NaN	0	0
409	1	95	1	none	0.5	NaN	red	1	left	left	GLO	none	far	0	intact	none	none	0	0	NaN	NaN	NaN	none	none	NaN	0	0
409	1	96	1	none	0.5	NaN	green	1	down	down	GLO	none	far	0	intact	none	none	0	0	NaN	NaN	NaN	none	none	NaN	0	0
409	1	97	1	none	0.5	NaN	blue	1	down	down	GLO	none	close	0	intact	none	none	0	0	NaN	NaN	NaN	none	none	NaN	0	0
409	1	98	1	none	0.5	NaN	blue	0	up	up	GLO	none	far	0	intact	none	none	0	0	NaN	NaN	NaN	none	none	NaN	0	0
409	1	99	1	none	0.5	NaN	blue	1	down	down	GLO	none	close	0	intact	none	none	0	0	NaN	NaN	NaN	none	none	NaN	0	0
409	1	100	1	none	0.5	NaN	yellow	1	down	down	GLO	none	close	0	intact	none	none	0	0	NaN	NaN	NaN	none	none	NaN	0	0
409	1	101	1	none	0.5	NaN	yellow	0	left	left	GLO	none	close	0	intact	none	none	0	0	NaN	NaN	NaN	none	none	NaN	0	0
409	1	102	1	none	0.5	NaN	yellow	1	down	down	GLO	none	far	0	intact	none	none	0	0	NaN	NaN	NaN	none	none	NaN	0	0
409	1	103	1	none	0.5	NaN	blue	0	up	up	GLO	none	far	0	intact	none	none	0	0	NaN	NaN	NaN	none	none	NaN	0	0
409	1	104	1	none	0.5	NaN	green	1	left	left	GLO	none	far	0	intact	none	none	0	0	NaN	NaN	NaN	none	none	NaN	0	0
409	1	105	1	none	0.5	NaN	yellow	0	left	left	GLO	none	far	0	intact	none	none	0	0	NaN	NaN	NaN	none	none	NaN	0	0
409	1	106	1	none	0.5	NaN	yellow	1	right	right	GLO	none	close	0	intact	none	none	0	0	NaN	NaN	NaN	none	none	NaN	0	0
409	1	107	1	none	0.5	NaN	red	1	left	left	GLO	none	close	0	intact	none	none	0	0	NaN	NaN	NaN	none	none	NaN	0	0
409	1	108	1	none	0.5	NaN	blue	0	up	up	GLO	none	close	0	intact	none	none	0	0	NaN	NaN	NaN	none	none	NaN	0	0
409	1	109	1	none	0.5	NaN	red	0	down	down	GLO	none	far	0	intact	none	none	0	0	NaN	NaN	NaN	none	none	NaN	0	0
409	1	110	1	none	0.5	NaN	yellow	0	left	left	GLO	none	close	0	intact	none	none	0	0	NaN	NaN	NaN	none	none	NaN	0	0
409	1	111	1	none	0.5	NaN	green	1	left	left	GLO	none	close	0	intact	none	none	0	0	NaN	NaN	NaN	none	none	NaN	0	0
409	1	112	1	none	0.5	NaN	yellow	1	up	up	GLO	none	close	0	intact	none	none	0	0	NaN	NaN	NaN	none	none	NaN	0	0
409	1	113	1	none	0.5	NaN	green	1	up	up	GLO	none	close	0	intact	none	none	0	0	NaN	NaN	NaN	none	none	NaN	0	0
409	1	114	1	none	0.5	NaN	red	0	down	down	GLO	none	far	0	intact	none	none	0	0	NaN	NaN	NaN	none	none	NaN	0	0
409	1	115	1	none	0.5	NaN	red	1	up	up	GLO	none	close	0	intact	none	none	0	0	NaN	NaN	NaN	none	none	NaN	0	0
409	1	116	1	none	0.5	NaN	blue	1	right	right	GLO	none	close	0	intact	none	none	0	0	NaN	NaN	NaN	none	none	NaN	0	0
409	1	117	1	none	0.5	NaN	yellow	0	left	left	GLO	none	close	0	intact	none	none	0	0	NaN	NaN	NaN	none	none	NaN	0	0
409	1	118	1	none	0.5	NaN	blue	0	up	up	GLO	none	close	0	intact	none	none	0	0	NaN	NaN	NaN	none	none	NaN	0	0
409	1	119	1	none	0.5	NaN	yellow	0	left	left	GLO	none	close	0	intact	none	none	0	0	NaN	NaN	NaN	none	none	NaN	0	0
409	1	120	1	none	0.5	NaN	yellow	0	left	left	GLO	none	close	0	intact	none	none	0	0	NaN	NaN	NaN	none	none	NaN	0	0
409	1	121	1	none	0.5	NaN	green	1	left	left	GLO	none	far	0	intact	none	none	0	0	NaN	NaN	NaN	none	none	NaN	0	0
409	1	122	1	none	0.5	NaN	blue	1	right	right	GLO	none	close	0	intact	none	none	0	0	NaN	NaN	NaN	none	none	NaN	0	0
409	1	123	1	none	0.5	NaN	red	1	up	up	GLO	none	far	0	intact	none	none	0	0	NaN	NaN	NaN	none	none	NaN	0	0
409	1	124	1	none	0.5	NaN	green	1	up	up	GLO	none	close	0	intact	none	none	0	0	NaN	NaN	NaN	none	none	NaN	0	0
409	1	125	1	none	0.5	NaN	yellow	0	left	left	GLO	none	close	0	intact	none	none	0	0	NaN	NaN	NaN	none	none	NaN	0	0
409	1	126	1	none	0.5	NaN	red	0	down	down	GLO	none	close	0	intact	none	none	0	0	NaN	NaN	NaN	none	none	NaN	0	0
409	1	127	1	none	0.5	NaN	yellow	1	right	right	GLO	none	far	0	intact	none	none	0	0	NaN	NaN	NaN	none	none	NaN	0	0
409	1	128	1	none	0.5	NaN	blue	1	right	right	GLO	none	far	0	intact	none	none	0	0	NaN	NaN	NaN	none	none	NaN	0	0
409	1	129	1	none	0.5	NaN	red	0	down	down	GLO	none	close	0	intact	none	none	0	0	NaN	NaN	NaN	none	none	NaN	0	0
409	1	130	1	none	0.5	NaN	yellow	1	right	right	GLO	none	close	0	intact	none	none	0	0	NaN	NaN	NaN	none	none	NaN	0	0
409	1	131	1	none	0.5	NaN	blue	0	up	up	GLO	none	close	0	intact	none	none	0	0	NaN	NaN	NaN	none	none	NaN	0	0
409	1	132	1	none	0.5	NaN	green	0	right	right	GLO	none	far	0	intact	none	none	0	0	NaN	NaN	NaN	none	none	NaN	0	0
409	1	133	1	none	0.5	NaN	blue	0	up	up	GLO	none	close	0	intact	none	none	0	0	NaN	NaN	NaN	none	none	NaN	0	0
409	1	134	1	none	0.5	NaN	red	1	right	right	GLO	none	far	0	intact	none	none	0	0	NaN	NaN	NaN	none	none	NaN	0	0
409	1	135	1	none	0.5	NaN	red	1	right	right	GLO	none	close	0	intact	none	none	0	0	NaN	NaN	NaN	none	none	NaN	0	0
409	1	136	1	none	0.5	NaN	blue	1	down	down	GLO	none	far	0	intact	none	none	0	0	NaN	NaN	NaN	none	none	NaN	0	0
409	1	137	1	none	0.5	NaN	yellow	0	left	left	GLO	none	far	0	intact	none	none	0	0	NaN	NaN	NaN	none	none	NaN	0	0
409	1	138	1	none	0.5	NaN	green	0	right	right	GLO	none	far	0	intact	none	none	0	0	NaN	NaN	NaN	none	none	NaN	0	0
409	1	139	1	none	0.5	NaN	red	0	down	down	GLO	none	close	0	intact	none	none	0	0	NaN	NaN	NaN	none	none	NaN	0	0
409	1	140	1	none	0.5	NaN	yellow	1	right	right	GLO	none	close	0	intact	none	none	0	0	NaN	NaN	NaN	none	none	NaN	0	0
409	1	141	1	none	0.5	NaN	blue	1	right	right	GLO	none	far	0	intact	none	none	0	0	NaN	NaN	NaN	none	none	NaN	0	0
409	1	142	1	none	0.5	NaN	green	0	right	right	GLO	none	close	0	intact	none	none	0	0	NaN	NaN	NaN	none	none	NaN	0	0
409	1	143	1	none	0.5	NaN	blue	1	left	left	GLO	none	far	0	intact	none	none	0	0	NaN	NaN	NaN	none	none	NaN	0	0
409	1	144	1	none	0.5	NaN	red	0	down	down	GLO	none	close	0	intact	none	none	0	0	NaN	NaN	NaN	none	none	NaN	0	0
409	1	145	1	none	0.5	NaN	blue	1	right	right	GLO	none	far	0	intact	none	none	0	0	NaN	NaN	NaN	none	none	NaN	0	0
409	1	146	1	none	0.5	NaN	blue	1	down	down	GLO	none	far	0	intact	none	none	0	0	NaN	NaN	NaN	none	none	NaN	0	0
409	1	147	1	none	0.5	NaN	blue	1	right	right	GLO	none	far	0	intact	none	none	0	0	NaN	NaN	NaN	none	none	NaN	0	0
409	1	148	1	none	0.5	NaN	green	0	right	right	GLO	none	close	0	intact	none	none	0	0	NaN	NaN	NaN	none	none	NaN	0	0
409	1	149	1	none	0.5	NaN	yellow	1	right	right	GLO	none	far	0	intact	none	none	0	0	NaN	NaN	NaN	none	none	NaN	0	0
409	1	150	1	none	0.5	NaN	green	1	up	up	GLO	none	close	0	intact	none	none	0	0	NaN	NaN	NaN	none	none	NaN	0	0
409	1	151	1	none	0.5	NaN	red	0	down	down	GLO	none	far	0	intact	none	none	0	0	NaN	NaN	NaN	none	none	NaN	0	0
409	1	152	1	none	0.5	NaN	blue	1	left	left	GLO	none	close	0	intact	none	none	0	0	NaN	NaN	NaN	none	none	NaN	0	0
409	1	153	1	none	0.5	NaN	green	0	right	right	GLO	none	close	0	intact	none	none	0	0	NaN	NaN	NaN	none	none	NaN	0	0
409	1	154	1	none	0.5	NaN	blue	1	right	right	GLO	none	close	0	intact	none	none	0	0	NaN	NaN	NaN	none	none	NaN	0	0
409	1	155	1	none	0.5	NaN	yellow	0	left	left	GLO	none	far	0	intact	none	none	0	0	NaN	NaN	NaN	none	none	NaN	0	0
409	1	156	1	none	0.5	NaN	blue	0	up	up	GLO	none	close	0	intact	none	none	0	0	NaN	NaN	NaN	none	none	NaN	0	0
409	1	157	1	none	0.5	NaN	blue	1	right	right	GLO	none	far	0	intact	none	none	0	0	NaN	NaN	NaN	none	none	NaN	0	0
409	1	158	1	none	0.5	NaN	yellow	1	up	up	GLO	none	far	0	intact	none	none	0	0	NaN	NaN	NaN	none	none	NaN	0	0
409	1	159	1	none	0.5	NaN	green	0	right	right	GLO	none	far	0	intact	none	none	0	0	NaN	NaN	NaN	none	none	NaN	0	0
409	1	160	1	none	0.5	NaN	red	0	down	down	GLO	none	far	0	intact	none	none	0	0	NaN	NaN	NaN	none	none	NaN	0	0
409	1	161	1	none	0.5	NaN	blue	1	down	down	GLO	none	far	0	intact	none	none	0	0	NaN	NaN	NaN	none	none	NaN	0	0
409	1	162	1	none	0.5	NaN	green	1	up	up	GLO	none	close	0	intact	none	none	0	0	NaN	NaN	NaN	none	none	NaN	0	0
409	1	163	1	none	0.5	NaN	green	1	up	up	GLO	none	far	0	intact	none	none	0	0	NaN	NaN	NaN	none	none	NaN	0	0
409	1	164	1	none	0.5	NaN	red	0	down	down	GLO	none	close	0	intact	none	none	0	0	NaN	NaN	NaN	none	none	NaN	0	0
409	1	165	1	none	0.5	NaN	green	0	right	right	GLO	none	close	0	intact	none	none	0	0	NaN	NaN	NaN	none	none	NaN	0	0
409	1	166	1	none	0.5	NaN	red	0	down	down	GLO	none	close	0	intact	none	none	0	0	NaN	NaN	NaN	none	none	NaN	0	0
409	1	167	1	none	0.5	NaN	green	1	up	up	GLO	none	close	0	intact	none	none	0	0	NaN	NaN	NaN	none	none	NaN	0	0
409	1	168	1	none	0.5	NaN	yellow	0	left	left	GLO	none	close	0	intact	none	none	0	0	NaN	NaN	NaN	none	none	NaN	0	0
409	1	169	1	none	0.5	NaN	blue	1	left	left	GLO	none	close	0	intact	none	none	0	0	NaN	NaN	NaN	none	none	NaN	0	0
409	1	170	1	none	0.5	NaN	green	1	left	left	GLO	none	far	0	intact	none	none	0	0	NaN	NaN	NaN	none	none	NaN	0	0
409	1	171	1	none	0.5	NaN	blue	0	up	up	GLO	none	close	0	intact	none	none	0	0	NaN	NaN	NaN	none	none	NaN	0	0
409	1	172	1	none	0.5	NaN	yellow	1	down	down	GLO	none	far	0	intact	none	none	0	0	NaN	NaN	NaN	none	none	NaN	0	0
409	1	173	1	none	0.5	NaN	blue	0	up	up	GLO	none	far	0	intact	none	none	0	0	NaN	NaN	NaN	none	none	NaN	0	0
409	1	174	1	none	0.5	NaN	blue	1	down	down	GLO	none	far	0	intact	none	none	0	0	NaN	NaN	NaN	none	none	NaN	0	0
409	1	175	1	none	0.5	NaN	red	1	left	left	GLO	none	far	0	intact	none	none	0	0	NaN	NaN	NaN	none	none	NaN	0	0
409	1	176	1	none	0.5	NaN	red	1	left	left	GLO	none	far	0	intact	none	none	0	0	NaN	NaN	NaN	none	none	NaN	0	0
409	1	177	1	none	0.5	NaN	green	1	up	up	GLO	none	far	0	intact	none	none	0	0	NaN	NaN	NaN	none	none	NaN	0	0
409	1	178	1	none	0.5	NaN	red	1	right	right	GLO	none	far	0	intact	none	none	0	0	NaN	NaN	NaN	none	none	NaN	0	0
409	1	179	1	none	0.5	NaN	red	1	up	up	GLO	none	far	0	intact	none	none	0	0	NaN	NaN	NaN	none	none	NaN	0	0
409	1	180	1	none	0.5	NaN	yellow	0	left	left	GLO	none	close	0	intact	none	none	0	0	NaN	NaN	NaN	none	none	NaN	0	0
409	1	181	1	none	0.5	NaN	yellow	1	down	down	GLO	none	close	0	intact	none	none	0	0	NaN	NaN	NaN	none	none	NaN	0	0
409	1	182	1	none	0.5	NaN	yellow	1	down	down	GLO	none	far	0	intact	none	none	0	0	NaN	NaN	NaN	none	none	NaN	0	0
409	1	183	1	none	0.5	NaN	green	1	left	left	GLO	none	close	0	intact	none	none	0	0	NaN	NaN	NaN	none	none	NaN	0	0
409	1	184	1	none	0.5	NaN	green	0	right	right	GLO	none	close	0	intact	none	none	0	0	NaN	NaN	NaN	none	none	NaN	0	0
409	1	185	1	none	0.5	NaN	green	0	right	right	GLO	none	far	0	intact	none	none	0	0	NaN	NaN	NaN	none	none	NaN	0	0
409	1	186	1	none	0.5	NaN	blue	1	right	right	GLO	none	close	0	intact	none	none	0	0	NaN	NaN	NaN	none	none	NaN	0	0
409	1	187	1	none	0.5	NaN	red	0	down	down	GLO	none	close	0	intact	none	none	0	0	NaN	NaN	NaN	none	none	NaN	0	0
409	1	188	1	none	0.5	NaN	blue	0	up	up	GLO	none	far	0	intact	none	none	0	0	NaN	NaN	NaN	none	none	NaN	0	0
409	1	189	1	none	0.5	NaN	green	0	right	right	GLO	none	far	0	intact	none	none	0	0	NaN	NaN	NaN	none	none	NaN	0	0
409	1	190	1	none	0.5	NaN	green	1	up	up	GLO	none	far	0	intact	none	none	0	0	NaN	NaN	NaN	none	none	NaN	0	0
409	1	191	1	none	0.5	NaN	blue	0	up	up	GLO	none	far	0	intact	none	none	0	0	NaN	NaN	NaN	none	none	NaN	0	0
409	1	192	1	none	0.5	NaN	blue	1	right	right	GLO	none	far	0	intact	none	none	0	0	NaN	NaN	NaN	none	none	NaN	0	0
409	1	193	1	none	0.5	NaN	green	0	right	right	GLO	none	far	0	intact	none	none	0	0	NaN	NaN	NaN	none	none	NaN	0	0
409	1	194	1	none	0.5	NaN	green	1	down	down	GLO	none	far	0	intact	none	none	0	0	NaN	NaN	NaN	none	none	NaN	0	0
409	1	195	1	none	0.5	NaN	blue	1	right	right	GLO	none	close	0	intact	none	none	0	0	NaN	NaN	NaN	none	none	NaN	0	0
409	1	196	1	none	0.5	NaN	yellow	1	up	up	GLO	none	close	0	intact	none	none	0	0	NaN	NaN	NaN	none	none	NaN	0	0
409	1	197	1	none	0.5	NaN	green	1	up	up	GLO	none	far	0	intact	none	none	0	0	NaN	NaN	NaN	none	none	NaN	0	0
409	1	198	1	none	0.5	NaN	blue	0	up	up	GLO	none	close	0	intact	none	none	0	0	NaN	NaN	NaN	none	none	NaN	0	0
409	1	199	1	none	0.5	NaN	blue	1	left	left	GLO	none	close	0	intact	none	none	0	0	NaN	NaN	NaN	none	none	NaN	0	0
409	1	200	1	none	0.5	NaN	yellow	0	left	left	GLO	none	close	0	intact	none	none	0	0	NaN	NaN	NaN	none	none	NaN	0	0
409	1	201	1	none	0.5	NaN	blue	0	up	up	GLO	none	close	0	intact	none	none	0	0	NaN	NaN	NaN	none	none	NaN	0	0
409	1	202	1	none	0.5	NaN	red	0	down	down	GLO	none	far	0	intact	none	none	0	0	NaN	NaN	NaN	none	none	NaN	0	0
409	1	203	1	none	0.5	NaN	green	1	up	up	GLO	none	far	0	intact	none	none	0	0	NaN	NaN	NaN	none	none	NaN	0	0
409	1	204	1	none	0.5	NaN	yellow	1	right	right	GLO	none	far	0	intact	none	none	0	0	NaN	NaN	NaN	none	none	NaN	0	0
409	1	205	1	none	0.5	NaN	green	0	right	right	GLO	none	close	0	intact	none	none	0	0	NaN	NaN	NaN	none	none	NaN	0	0
409	1	206	1	none	0.5	NaN	yellow	0	left	left	GLO	none	far	0	intact	none	none	0	0	NaN	NaN	NaN	none	none	NaN	0	0
409	1	207	1	none	0.5	NaN	yellow	1	right	right	GLO	none	close	0	intact	none	none	0	0	NaN	NaN	NaN	none	none	NaN	0	0
409	1	208	1	none	0.5	NaN	red	1	right	right	GLO	none	close	0	intact	none	none	0	0	NaN	NaN	NaN	none	none	NaN	0	0
409	1	209	1	none	0.5	NaN	blue	0	up	up	GLO	none	close	0	intact	none	none	0	0	NaN	NaN	NaN	none	none	NaN	0	0
409	1	210	1	none	0.5	NaN	green	0	right	right	GLO	none	far	0	intact	none	none	0	0	NaN	NaN	NaN	none	none	NaN	0	0
409	1	211	1	none	0.5	NaN	blue	0	up	up	GLO	none	close	0	intact	none	none	0	0	NaN	NaN	NaN	none	none	NaN	0	0
409	1	212	1	none	0.5	NaN	yellow	1	up	up	GLO	none	close	0	intact	none	none	0	0	NaN	NaN	NaN	none	none	NaN	0	0
409	1	213	1	none	0.5	NaN	green	0	right	right	GLO	none	far	0	intact	none	none	0	0	NaN	NaN	NaN	none	none	NaN	0	0
409	1	214	1	none	0.5	NaN	green	0	right	right	GLO	none	close	0	intact	none	none	0	0	NaN	NaN	NaN	none	none	NaN	0	0
409	1	215	1	none	0.5	NaN	red	1	right	right	GLO	none	far	0	intact	none	none	0	0	NaN	NaN	NaN	none	none	NaN	0	0
409	1	216	1	none	0.5	NaN	red	1	up	up	GLO	none	far	0	intact	none	none	0	0	NaN	NaN	NaN	none	none	NaN	0	0
409	1	217	1	none	0.5	NaN	red	1	left	left	GLO	none	far	0	intact	none	none	0	0	NaN	NaN	NaN	none	none	NaN	0	0
409	1	218	1	none	0.5	NaN	yellow	0	left	left	GLO	none	close	0	intact	none	none	0	0	NaN	NaN	NaN	none	none	NaN	0	0
409	1	219	1	none	0.5	NaN	green	0	right	right	GLO	none	close	0	intact	none	none	0	0	NaN	NaN	NaN	none	none	NaN	0	0
409	1	220	1	none	0.5	NaN	yellow	0	left	left	GLO	none	far	0	intact	none	none	0	0	NaN	NaN	NaN	none	none	NaN	0	0
409	1	221	1	none	0.5	NaN	red	1	up	up	GLO	none	close	0	intact	none	none	0	0	NaN	NaN	NaN	none	none	NaN	0	0
409	1	222	1	none	0.5	NaN	yellow	1	down	down	GLO	none	far	0	intact	none	none	0	0	NaN	NaN	NaN	none	none	NaN	0	0
409	1	223	1	none	0.5	NaN	yellow	1	down	down	GLO	none	far	0	intact	none	none	0	0	NaN	NaN	NaN	none	none	NaN	0	0
409	1	224	1	none	0.5	NaN	red	1	left	left	GLO	none	far	0	intact	none	none	0	0	NaN	NaN	NaN	none	none	NaN	0	0
409	1	225	1	none	0.5	NaN	yellow	0	left	left	GLO	none	far	0	intact	none	none	0	0	NaN	NaN	NaN	none	none	NaN	0	0
409	1	226	1	none	0.5	NaN	red	0	down	down	GLO	none	far	0	intact	none	none	0	0	NaN	NaN	NaN	none	none	NaN	0	0
409	1	227	1	none	0.5	NaN	yellow	1	up	up	GLO	none	far	0	intact	none	none	0	0	NaN	NaN	NaN	none	none	NaN	0	0
409	1	228	1	none	0.5	NaN	green	0	right	right	GLO	none	far	0	intact	none	none	0	0	NaN	NaN	NaN	none	none	NaN	0	0
409	1	229	1	none	0.5	NaN	red	0	down	down	GLO	none	far	0	intact	none	none	0	0	NaN	NaN	NaN	none	none	NaN	0	0
409	1	230	1	none	0.5	NaN	yellow	1	right	right	GLO	none	far	0	intact	none	none	0	0	NaN	NaN	NaN	none	none	NaN	0	0
409	1	231	1	none	0.5	NaN	yellow	1	right	right	GLO	none	far	0	intact	none	none	0	0	NaN	NaN	NaN	none	none	NaN	0	0
409	1	232	1	none	0.5	NaN	yellow	1	down	down	GLO	none	far	0	intact	none	none	0	0	NaN	NaN	NaN	none	none	NaN	0	0
409	1	233	1	none	0.5	NaN	red	1	right	right	GLO	none	close	0	intact	none	none	0	0	NaN	NaN	NaN	none	none	NaN	0	0
409	1	234	1	none	0.5	NaN	green	1	down	down	GLO	none	close	0	intact	none	none	0	0	NaN	NaN	NaN	none	none	NaN	0	0
409	1	235	1	none	0.5	NaN	blue	1	right	right	GLO	none	far	0	intact	none	none	0	0	NaN	NaN	NaN	none	none	NaN	0	0
409	1	236	1	none	0.5	NaN	green	0	right	right	GLO	none	far	0	intact	none	none	0	0	NaN	NaN	NaN	none	none	NaN	0	0
409	1	237	1	none	0.5	NaN	green	1	up	up	GLO	none	close	0	intact	none	none	0	0	NaN	NaN	NaN	none	none	NaN	0	0
409	1	238	1	none	0.5	NaN	blue	0	up	up	GLO	none	far	0	intact	none	none	0	0	NaN	NaN	NaN	none	none	NaN	0	0
409	1	239	1	none	0.5	NaN	yellow	0	left	left	GLO	none	far	0	intact	none	none	0	0	NaN	NaN	NaN	none	none	NaN	0	0
409	1	240	1	none	0.5	NaN	blue	1	down	down	GLO	none	far	0	intact	none	none	0	0	NaN	NaN	NaN	none	none	NaN	0	0
409	1	241	1	none	0.5	NaN	yellow	1	right	right	GLO	none	far	0	intact	none	none	0	0	NaN	NaN	NaN	none	none	NaN	0	0
409	1	242	1	none	0.5	NaN	green	0	right	right	GLO	none	close	0	intact	none	none	0	0	NaN	NaN	NaN	none	none	NaN	0	0
409	1	243	1	none	0.5	NaN	yellow	1	down	down	GLO	none	far	0	intact	none	none	0	0	NaN	NaN	NaN	none	none	NaN	0	0
409	1	244	1	none	0.5	NaN	red	1	up	up	GLO	none	far	0	intact	none	none	0	0	NaN	NaN	NaN	none	none	NaN	0	0
409	1	245	1	none	0.5	NaN	blue	1	right	right	GLO	none	far	0	intact	none	none	0	0	NaN	NaN	NaN	none	none	NaN	0	0
409	1	246	1	none	0.5	NaN	yellow	1	right	right	GLO	none	far	0	intact	none	none	0	0	NaN	NaN	NaN	none	none	NaN	0	0
409	1	247	1	none	0.5	NaN	green	0	right	right	GLO	none	far	0	intact	none	none	0	0	NaN	NaN	NaN	none	none	NaN	0	0
409	1	248	1	none	0.5	NaN	green	0	right	right	GLO	none	far	0	intact	none	none	0	0	NaN	NaN	NaN	none	none	NaN	0	0
409	1	249	1	none	0.5	NaN	yellow	1	up	up	GLO	none	close	0	intact	none	none	0	0	NaN	NaN	NaN	none	none	NaN	0	0
409	1	250	1	none	0.5	NaN	yellow	1	up	up	GLO	none	far	0	intact	none	none	0	0	NaN	NaN	NaN	none	none	NaN	0	0
409	1	251	1	none	0.5	NaN	yellow	0	left	left	GLO	none	close	0	intact	none	none	0	0	NaN	NaN	NaN	none	none	NaN	0	0
409	1	252	1	none	0.5	NaN	yellow	0	left	left	GLO	none	close	0	intact	none	none	0	0	NaN	NaN	NaN	none	none	NaN	0	0
409	1	253	1	none	0.5	NaN	blue	0	up	up	GLO	none	far	0	intact	none	none	0	0	NaN	NaN	NaN	none	none	NaN	0	0
409	1	254	1	none	0.5	NaN	yellow	0	left	left	GLO	none	far	0	intact	none	none	0	0	NaN	NaN	NaN	none	none	NaN	0	0
409	1	255	1	none	0.5	NaN	yellow	0	left	left	GLO	none	far	0	intact	none	none	0	0	NaN	NaN	NaN	none	none	NaN	0	0
409	1	256	1	none	0.5	NaN	red	0	down	down	GLO	none	far	0	intact	none	none	0	0	NaN	NaN	NaN	none	none	NaN	0	0
409	1	257	1	none	0.5	NaN	blue	1	right	right	GLO	none	close	0	intact	none	none	0	0	NaN	NaN	NaN	none	none	NaN	0	0
409	1	258	1	none	0.5	NaN	yellow	1	up	up	GLO	none	close	0	intact	none	none	0	0	NaN	NaN	NaN	none	none	NaN	0	0
409	1	259	1	none	0.5	NaN	green	1	up	up	GLO	none	close	0	intact	none	none	0	0	NaN	NaN	NaN	none	none	NaN	0	0
409	1	260	1	none	0.5	NaN	blue	1	left	left	GLO	none	close	0	intact	none	none	0	0	NaN	NaN	NaN	none	none	NaN	0	0
409	1	261	1	none	0.5	NaN	red	0	down	down	GLO	none	far	0	intact	none	none	0	0	NaN	NaN	NaN	none	none	NaN	0	0
409	1	262	1	none	0.5	NaN	green	1	left	left	GLO	none	close	0	intact	none	none	0	0	NaN	NaN	NaN	none	none	NaN	0	0
409	1	263	1	none	0.5	NaN	yellow	1	right	right	GLO	none	close	0	intact	none	none	0	0	NaN	NaN	NaN	none	none	NaN	0	0
409	1	264	1	none	0.5	NaN	red	0	down	down	GLO	none	close	0	intact	none	none	0	0	NaN	NaN	NaN	none	none	NaN	0	0
409	1	265	1	none	0.5	NaN	green	1	up	up	GLO	none	far	0	intact	none	none	0	0	NaN	NaN	NaN	none	none	NaN	0	0
409	1	266	1	none	0.5	NaN	red	0	down	down	GLO	none	far	0	intact	none	none	0	0	NaN	NaN	NaN	none	none	NaN	0	0
409	1	267	1	none	0.5	NaN	green	0	right	right	GLO	none	far	0	intact	none	none	0	0	NaN	NaN	NaN	none	none	NaN	0	0
409	1	268	1	none	0.5	NaN	blue	0	up	up	GLO	none	far	0	intact	none	none	0	0	NaN	NaN	NaN	none	none	NaN	0	0
409	1	269	1	none	0.5	NaN	yellow	0	left	left	GLO	none	close	0	intact	none	none	0	0	NaN	NaN	NaN	none	none	NaN	0	0
409	1	270	1	none	0.5	NaN	green	1	down	down	GLO	none	close	0	intact	none	none	0	0	NaN	NaN	NaN	none	none	NaN	0	0
409	1	271	1	none	0.5	NaN	yellow	1	right	right	GLO	none	close	0	intact	none	none	0	0	NaN	NaN	NaN	none	none	NaN	0	0
409	1	272	1	none	0.5	NaN	green	1	down	down	GLO	none	close	0	intact	none	none	0	0	NaN	NaN	NaN	none	none	NaN	0	0
409	1	273	1	none	0.5	NaN	red	0	down	down	GLO	none	close	0	intact	none	none	0	0	NaN	NaN	NaN	none	none	NaN	0	0
409	1	274	1	none	0.5	NaN	green	1	down	down	GLO	none	far	0	intact	none	none	0	0	NaN	NaN	NaN	none	none	NaN	0	0
409	1	275	1	none	0.5	NaN	red	1	right	right	GLO	none	far	0	intact	none	none	0	0	NaN	NaN	NaN	none	none	NaN	0	0
409	1	276	1	none	0.5	NaN	yellow	0	left	left	GLO	none	close	0	intact	none	none	0	0	NaN	NaN	NaN	none	none	NaN	0	0
409	1	277	1	none	0.5	NaN	green	1	left	left	GLO	none	far	0	intact	none	none	0	0	NaN	NaN	NaN	none	none	NaN	0	0
409	2	1	1	auto	1.5	1.51007	yellow	0	left	left	GLO	right	close	1	intact	intact	June_2016_(3)_fps_avg_aud.mp4	1	0	1.87488	0	1	right	green	0	0	0
409	2	2	1	auto	1.5	1.51105	red	1	right	right	GLO	right	far	1	intact	intact	Apr19_fps_avg_aud.mp4	1	0	3.38442	0	1	down	red	1	0	0
409	2	3	1	auto	1.5	1.51211	green	1	down	down	GLO	right	far	1	intact	intact	039e9adf-0d8d-4d86-a59c-e7770b0ae616_fps_avg_aud.mp4	1	0	0.995092	0	1	right	green	1	0	0
409	2	4	1	auto	1.5	1.50939	green	1	down	down	GLO	right	close	1	intact	intact	38a0ff6f-f976-4235-af7e-49859d376c46_fps_avg_aud.mp4	1	0	1.33393	0	1	right	green	1	0	0
409	2	5	1	auto	1.5	1.51251	green	0	right	right	GLO	left	far	1	intact	intact	c939d2dd-f401-4cdf-bab0-fe7457cad0a4_fps_avg_aud.mp4	1	0	1.45131	0	1	right	green	1	0	0
409	2	6	1	auto	1.5	1.51773	blue	0	up	up	GLO	right	close	0	intact	none	none	0	0	1.28395	0	1	down	red	0	0	0
409	2	7	1	auto	1.5	1.51258	green	0	right	right	GLO	left	far	1	intact	intact	494caa55-f328-4782-a0b7-4f4f5ad41492_fps_avg_aud.mp4	1	0	1.22371	0	1	right	green	1	0	0
409	2	8	1	auto	1.5	1.51088	red	0	down	down	GLO	right	close	1	intact	intact	October_2015_fps_avg_aud.mp4	1	18	1.11864	0.265394	2	up	blue	0	0	0
409	2	9	1	auto	1.5	1.5162	green	1	down	down	GLO	right	far	0	intact	none	none	0	0	1.71785	0	1	right	green	1	0	0
409	2	10	1	auto	0.5	0.511276	green	0	right	right	GLO	right	far	0	intact	none	none	0	0	0.683997	0	1	right	green	1	0	0
409	2	11	1	auto	0.5	0.514842	green	0	right	right	GLO	right	far	0	intact	none	none	0	0	0.660225	0	1	right	green	1	0	0
409	2	12	1	auto	0.5	0.514836	red	0	down	down	GLO	left	far	0	intact	none	none	0	0	1.35058	0	1	down	red	1	0	0
409	2	13	1	auto	0.5	0.513389	blue	1	right	right	GLO	left	far	0	intact	none	none	0	0	1.12625	0	1	up	blue	1	0	0
409	2	14	1	auto	0.5	0.50975	red	1	left	left	GLO	left	close	0	intact	none	none	0	0	0.867284	0	1	down	red	1	0	0
409	2	15	1	auto	0.5	0.513031	yellow	0	left	left	GLO	right	close	0	intact	none	none	0	0	0.874356	0	1	left	yellow	1	0	0
409	2	16	1	auto	0.5	0.516061	green	1	left	left	GLO	left	far	1	intact	intact	Feb8_fps_avg_aud.mp4	1	0	1.35094	0	1	right	green	1	0	0
409	2	17	1	auto	0.5	0.511559	yellow	0	left	left	GLO	left	close	0	intact	none	none	0	0	0.80018	0	1	left	yellow	1	0	0
409	2	18	1	auto	0.5	0.512925	yellow	1	down	down	GLO	left	far	1	intact	intact	533b0238-357b-409c-8d86-25285970eb98_fps_avg_aud.mp4	1	0	1.2167	0	1	left	yellow	1	0	0
409	2	19	1	auto	0.5	0.509435	yellow	1	right	right	GLO	left	far	1	intact	intact	34cddff1-7a1a-4e71-be66-8a745a1d42f4_fps_avg_aud.mp4	1	0	0.952254	0	1	left	yellow	1	0	0
409	2	20	1	auto	0.5	0.516548	red	0	down	down	GLO	left	close	0	intact	none	none	0	0	1.93453	0	1	down	red	1	0	0
409	2	21	1	auto	0.5	0.513786	blue	0	up	up	GLO	right	far	1	intact	intact	1b336470-7a10-4cc7-aee4-3a5e6e6e551e_fps_avg_aud.mp4	1	0	0.7845	0	1	up	blue	1	0	0
409	2	22	1	auto	0.5	0.512668	blue	1	left	left	GLO	left	far	1	intact	intact	Sep24_fps_avg_aud.mp4	1	0	1.42014	0	1	up	blue	1	0	0
409	2	23	1	auto	0.5	0.511398	red	1	up	up	GLO	right	close	0	intact	none	none	0	0	1.40134	0	1	down	red	1	0	0
409	2	24	1	auto	0.5	0.513606	green	1	down	down	GLO	left	far	0	intact	none	none	0	0	0.785512	0	1	right	green	1	0	0
409	2	25	1	auto	0.5	0.51111	yellow	1	down	down	GLO	right	close	1	intact	intact	e00791ee-f5a4-4315-8214-e183c3e1d2cf_fps_avg_aud.mp4	1	0	0.5436	0	1	left	yellow	1	0	0
409	2	26	1	auto	0.5	NaN	yellow	0	left	left	GLO	none	close	0	intact	none	none	0	0	NaN	NaN	NaN	none	none	NaN	0	0
409	2	27	1	auto	0.5	NaN	red	0	down	down	GLO	none	close	0	intact	none	none	0	0	NaN	NaN	NaN	none	none	NaN	0	0
409	2	28	1	auto	0.5	NaN	green	0	right	right	GLO	none	close	0	intact	none	none	0	0	NaN	NaN	NaN	none	none	NaN	0	0
409	2	29	1	auto	0.5	NaN	yellow	0	left	left	GLO	none	far	1	intact	intact	Dec31_fps_avg_aud.mp4	0	0	NaN	NaN	NaN	none	none	NaN	0	0
409	2	30	1	auto	0.5	NaN	yellow	1	right	right	GLO	none	far	0	intact	none	none	0	0	NaN	NaN	NaN	none	none	NaN	0	0
409	2	31	1	auto	0.5	NaN	yellow	1	up	up	GLO	none	far	1	intact	intact	fd4a95d6-f171-4c0b-8de2-e9ca909c9eff_fps_avg_aud.mp4	0	0	NaN	NaN	NaN	none	none	NaN	0	0
409	2	32	1	auto	0.5	NaN	red	1	up	up	GLO	none	close	1	intact	intact	Dec30_fps_avg_aud.mp4	0	0	NaN	NaN	NaN	none	none	NaN	0	0
409	2	33	1	auto	0.5	NaN	yellow	0	left	left	GLO	none	far	1	intact	intact	Jan31_fps_avg_aud.mp4	0	0	NaN	NaN	NaN	none	none	NaN	0	0
409	2	34	1	auto	0.5	NaN	green	0	right	right	GLO	none	close	0	intact	none	none	0	0	NaN	NaN	NaN	none	none	NaN	0	0
409	2	35	1	auto	0.5	NaN	green	1	up	up	GLO	none	far	0	intact	none	none	0	0	NaN	NaN	NaN	none	none	NaN	0	0
409	2	36	1	auto	0.5	NaN	green	1	down	down	GLO	none	close	1	intact	intact	1559c6cc-6a1d-4309-9bdf-810832c277d8_fps_avg_aud.mp4	0	0	NaN	NaN	NaN	none	none	NaN	0	0
409	2	37	1	auto	0.5	NaN	yellow	0	left	left	GLO	none	close	1	intact	intact	942f20a2-a776-400d-9488-0c1647ebd585_fps_avg_aud.mp4	0	0	NaN	NaN	NaN	none	none	NaN	0	0
409	2	38	1	auto	0.5	NaN	yellow	1	down	down	GLO	none	close	1	intact	intact	September_2016_(3)_fps_avg_aud.mp4	0	0	NaN	NaN	NaN	none	none	NaN	0	0
409	2	39	1	auto	0.5	NaN	blue	1	right	right	GLO	none	close	1	intact	intact	Apr16_fps_avg_aud.mp4	0	0	NaN	NaN	NaN	none	none	NaN	0	0
409	2	40	1	auto	0.5	NaN	yellow	1	up	up	GLO	none	far	1	intact	intact	Nov6_fps_avg_aud.mp4	0	0	NaN	NaN	NaN	none	none	NaN	0	0
409	2	41	1	auto	0.5	NaN	blue	0	up	up	GLO	none	close	0	intact	none	none	0	0	NaN	NaN	NaN	none	none	NaN	0	0
409	2	42	1	auto	0.5	NaN	yellow	0	left	left	GLO	none	close	1	intact	intact	705c0056-c7dd-4090-a27e-8956e33cb4b0_fps_avg_aud.mp4	0	0	NaN	NaN	NaN	none	none	NaN	0	0
409	2	43	1	auto	0.5	NaN	blue	1	right	right	GLO	none	close	1	intact	intact	cfde3402-3742-4dda-82a3-7c69c497e0f8_fps_avg_aud.mp4	0	0	NaN	NaN	NaN	none	none	NaN	0	0
409	2	44	1	auto	0.5	NaN	blue	1	down	down	GLO	none	far	1	intact	intact	7b9f55fa-3ddf-4c84-bb13-2413d53cbf75_fps_avg_aud.mp4	0	0	NaN	NaN	NaN	none	none	NaN	0	0
409	2	45	1	auto	0.5	NaN	red	0	down	down	GLO	none	far	1	intact	intact	058bdf98-bb64-4851-92f5-ffad71866ee8_fps_avg_aud.mp4	0	0	NaN	NaN	NaN	none	none	NaN	0	0
409	2	46	1	auto	0.5	NaN	red	0	down	down	GLO	none	far	0	intact	none	none	0	0	NaN	NaN	NaN	none	none	NaN	0	0
409	2	47	1	auto	0.5	NaN	red	0	down	down	GLO	none	close	1	intact	intact	0096623f-bd93-48df-96f9-85a0a749a586_fps_avg_aud.mp4	0	0	NaN	NaN	NaN	none	none	NaN	0	0
409	2	48	1	auto	0.5	NaN	red	0	down	down	GLO	none	close	1	intact	intact	f1caa1d5-1230-4918-b000-58763883bff3_fps_avg_aud.mp4	0	0	NaN	NaN	NaN	none	none	NaN	0	0
409	2	49	1	auto	0.5	NaN	red	1	left	left	GLO	none	far	1	intact	intact	b35409aa-6325-4736-bc0d-526af5b26b83_fps_avg_aud.mp4	0	0	NaN	NaN	NaN	none	none	NaN	0	0
409	2	50	1	auto	0.5	NaN	yellow	0	left	left	GLO	none	far	1	intact	intact	January_2016_(2)_fps_avg_aud.mp4	0	0	NaN	NaN	NaN	none	none	NaN	0	0
409	2	51	1	auto	0.5	NaN	blue	1	down	down	GLO	none	far	0	intact	none	none	0	0	NaN	NaN	NaN	none	none	NaN	0	0
409	2	52	1	auto	0.5	NaN	blue	1	left	left	GLO	none	close	1	intact	intact	76b50970-7143-4993-96e1-54ee18b8278e_fps_avg_aud.mp4	0	0	NaN	NaN	NaN	none	none	NaN	0	0
409	2	53	1	auto	0.5	NaN	red	0	down	down	GLO	none	close	0	intact	none	none	0	0	NaN	NaN	NaN	none	none	NaN	0	0
409	2	54	1	auto	0.5	NaN	yellow	1	down	down	GLO	none	close	1	intact	intact	179d3911-04f4-4680-91c3-2515ed1f3cc4_fps_avg_aud.mp4	0	0	NaN	NaN	NaN	none	none	NaN	0	0
409	2	55	1	auto	0.5	NaN	green	0	right	right	GLO	none	far	0	intact	none	none	0	0	NaN	NaN	NaN	none	none	NaN	0	0
409	2	56	1	auto	0.5	NaN	yellow	0	left	left	GLO	none	far	1	intact	intact	8d515f52-784f-4547-b4bd-dfedabc9c31a_fps_avg_aud.mp4	0	0	NaN	NaN	NaN	none	none	NaN	0	0
409	2	57	1	auto	0.5	NaN	blue	0	up	up	GLO	none	far	1	intact	intact	Feb29_fps_avg_aud.mp4	0	0	NaN	NaN	NaN	none	none	NaN	0	0
409	2	58	1	auto	0.5	NaN	green	1	down	down	GLO	none	far	1	intact	intact	b23c9ea6-adb6-492c-965f-16af3f7801e9_fps_avg_aud.mp4	0	0	NaN	NaN	NaN	none	none	NaN	0	0
409	2	59	1	auto	0.5	NaN	red	0	down	down	GLO	none	close	1	intact	intact	6ce71e9b-76db-4300-af8c-23df366c03d0_fps_avg_aud.mp4	0	0	NaN	NaN	NaN	none	none	NaN	0	0
409	2	60	1	auto	0.5	NaN	green	0	right	right	GLO	none	close	0	intact	none	none	0	0	NaN	NaN	NaN	none	none	NaN	0	0
409	2	61	1	auto	0.5	NaN	green	0	right	right	GLO	none	far	0	intact	none	none	0	0	NaN	NaN	NaN	none	none	NaN	0	0
409	2	62	1	auto	0.5	NaN	yellow	0	left	left	GLO	none	close	1	intact	intact	d4f25bdd-9060-452d-8b9a-299b4d79a939_fps_avg_aud.mp4	0	0	NaN	NaN	NaN	none	none	NaN	0	0
409	2	63	1	auto	0.5	NaN	yellow	1	down	down	GLO	none	close	1	intact	intact	b1ade3a7-f9fd-4229-8a80-df334c184531_fps_avg_aud.mp4	0	0	NaN	NaN	NaN	none	none	NaN	0	0
409	2	64	1	auto	0.5	NaN	blue	0	up	up	GLO	none	close	1	intact	intact	July3_fps_avg_aud.mp4	0	0	NaN	NaN	NaN	none	none	NaN	0	0
409	2	65	1	auto	0.5	NaN	blue	1	down	down	GLO	none	far	0	intact	none	none	0	0	NaN	NaN	NaN	none	none	NaN	0	0
409	2	66	1	auto	0.5	NaN	green	1	left	left	GLO	none	close	1	intact	intact	149f1481-9792-4892-beba-4137601f26a6_fps_avg_aud.mp4	0	0	NaN	NaN	NaN	none	none	NaN	0	0
409	2	67	1	auto	0.5	NaN	green	1	up	up	GLO	none	close	0	intact	none	none	0	0	NaN	NaN	NaN	none	none	NaN	0	0
409	2	68	1	auto	0.5	NaN	red	0	down	down	GLO	none	far	1	intact	intact	af1072d0-b5fe-435b-b10d-545750eb973b_fps_avg_aud.mp4	0	0	NaN	NaN	NaN	none	none	NaN	0	0
409	2	69	1	auto	0.5	NaN	blue	0	up	up	GLO	none	far	0	intact	none	none	0	0	NaN	NaN	NaN	none	none	NaN	0	0
409	2	70	1	auto	0.5	NaN	red	1	up	up	GLO	none	close	1	intact	intact	March_15_2016_fps_avg_aud.mp4	0	0	NaN	NaN	NaN	none	none	NaN	0	0
409	2	71	1	auto	0.5	NaN	yellow	0	left	left	GLO	none	close	0	intact	none	none	0	0	NaN	NaN	NaN	none	none	NaN	0	0
409	2	72	1	auto	0.5	NaN	red	1	left	left	GLO	none	close	0	intact	none	none	0	0	NaN	NaN	NaN	none	none	NaN	0	0
409	2	73	1	auto	0.5	NaN	red	0	down	down	GLO	none	far	1	intact	intact	6aaea3fa-b030-41d1-8780-a1c1120cd763_fps_avg_aud.mp4	0	0	NaN	NaN	NaN	none	none	NaN	0	0
409	2	74	1	auto	0.5	NaN	blue	0	up	up	GLO	none	far	1	intact	intact	ea6675d4-3684-48c3-9bd0-c32d38c48c9e_fps_avg_aud.mp4	0	0	NaN	NaN	NaN	none	none	NaN	0	0
409	2	75	1	auto	0.5	NaN	green	1	left	left	GLO	none	far	0	intact	none	none	0	0	NaN	NaN	NaN	none	none	NaN	0	0
409	2	76	1	auto	0.5	NaN	green	1	up	up	GLO	none	far	1	intact	intact	Nov19_fps_avg_aud.mp4	0	0	NaN	NaN	NaN	none	none	NaN	0	0
409	2	77	1	auto	0.5	NaN	green	0	right	right	GLO	none	close	1	intact	intact	1affd9f8-27af-4e8b-9985-5f3abbee6931_fps_avg_aud.mp4	0	0	NaN	NaN	NaN	none	none	NaN	0	0
409	2	78	1	auto	0.5	NaN	green	0	right	right	GLO	none	close	1	intact	intact	Mar21_fps_avg_aud.mp4	0	0	NaN	NaN	NaN	none	none	NaN	0	0
409	2	79	1	auto	0.5	NaN	green	0	right	right	GLO	none	close	1	intact	intact	May7_fps_avg_aud.mp4	0	0	NaN	NaN	NaN	none	none	NaN	0	0
409	2	80	1	auto	0.5	NaN	red	0	down	down	GLO	none	close	1	intact	intact	8fc730b2-0fc1-4125-9e0e-c9ed1f9ab58a_fps_avg_aud.mp4	0	0	NaN	NaN	NaN	none	none	NaN	0	0
409	2	81	1	auto	0.5	NaN	green	0	right	right	GLO	none	far	0	intact	none	none	0	0	NaN	NaN	NaN	none	none	NaN	0	0
409	2	82	1	auto	0.5	NaN	blue	1	right	right	GLO	none	far	1	intact	intact	210cd477-4b9d-42a8-810f-6df0d7615942_fps_avg_aud.mp4	0	0	NaN	NaN	NaN	none	none	NaN	0	0
409	2	83	1	auto	0.5	NaN	green	1	left	left	GLO	none	close	1	intact	intact	108f257a-1892-40f5-b9e3-6eb0557bc08c(1)_fps_avg_aud.mp4	0	0	NaN	NaN	NaN	none	none	NaN	0	0
409	2	84	1	auto	0.5	NaN	yellow	0	left	left	GLO	none	far	1	intact	intact	33a33f4c-72c6-457d-828e-a576d3e3a8e3_fps_avg_aud.mp4	0	0	NaN	NaN	NaN	none	none	NaN	0	0
409	2	85	1	auto	0.5	NaN	green	1	down	down	GLO	none	close	1	intact	intact	e1d4becd-1ca6-41b0-82ab-58d50a368204_fps_avg_aud.mp4	0	0	NaN	NaN	NaN	none	none	NaN	0	0
409	2	86	1	auto	0.5	NaN	blue	0	up	up	GLO	none	close	1	intact	intact	16ad27d6-0718-41b8-94e7-1c37789ce6cb_fps_avg_aud.mp4	0	0	NaN	NaN	NaN	none	none	NaN	0	0
409	2	87	1	auto	0.5	NaN	blue	0	up	up	GLO	none	close	0	intact	none	none	0	0	NaN	NaN	NaN	none	none	NaN	0	0
409	2	88	1	auto	0.5	NaN	green	0	right	right	GLO	none	close	1	intact	intact	d021cb9c-36bf-48fb-9474-23511a956f6a_fps_avg_aud.mp4	0	0	NaN	NaN	NaN	none	none	NaN	0	0
409	2	89	1	auto	0.5	NaN	yellow	0	left	left	GLO	none	close	0	intact	none	none	0	0	NaN	NaN	NaN	none	none	NaN	0	0
409	2	90	1	auto	0.5	NaN	yellow	0	left	left	GLO	none	close	0	intact	none	none	0	0	NaN	NaN	NaN	none	none	NaN	0	0
409	2	91	1	auto	0.5	NaN	green	0	right	right	GLO	none	close	1	intact	intact	October_8_2016_fps_avg_aud.mp4	0	0	NaN	NaN	NaN	none	none	NaN	0	0
409	2	92	1	auto	0.5	NaN	yellow	0	left	left	GLO	none	far	1	intact	intact	August_2015_fps_avg_aud.mp4	0	0	NaN	NaN	NaN	none	none	NaN	0	0
409	2	93	1	auto	0.5	NaN	red	1	up	up	GLO	none	far	0	intact	none	none	0	0	NaN	NaN	NaN	none	none	NaN	0	0
409	3	1	1	self	1.5	1.51698	yellow	0	left	left	GLO	left	far	1	intact	intact	July21_fps_avg_aud.mp4	0	0	3.1182	0	1	left	yellow	1	0	0
409	3	2	1	self	1.5	1.51606	yellow	1	right	right	GLO	left	far	1	intact	intact	e83d47c2-3289-4bb3-810c-afface120ccd_fps_avg_aud.mp4	0	0	0.600722	0	1	left	yellow	1	0	0
409	3	3	1	self	1.5	1.51194	green	0	right	right	GLO	right	close	1	intact	intact	April_2015_(1)_fps_avg_aud.mp4	0	0	0.5672	0	1	right	green	1	0	0
409	3	4	1	self	1.5	1.51325	green	0	right	right	GLO	left	close	1	intact	intact	e4815a42-3a54-463e-aeba-1230af20106d_fps_avg_aud.mp4	0	0	0.618837	0	1	right	green	1	0	0
409	3	5	1	self	1.5	1.51249	green	0	right	right	GLO	right	far	1	intact	intact	8c9efcf8-40ef-4975-90f5-9d2449140a05_fps_avg_aud.mp4	0	0	0.560823	0	1	right	green	1	0	0
409	3	6	1	self	1.5	1.51292	red	1	left	left	GLO	left	far	1	intact	intact	Oct30_fps_avg_aud.mp4	0	0	0.918466	0	1	down	red	1	0	0
409	3	7	1	self	1.5	1.51047	blue	1	right	right	GLO	right	far	1	intact	intact	b1dabac3-204f-4571-b892-69eb87e805d0_fps_avg_aud.mp4	0	0	0.601301	0	1	up	blue	1	0	0
409	3	8	1	self	1.5	1.50994	blue	1	down	down	GLO	right	far	1	intact	intact	79c2a399-1c19-4b6a-a7be-ad19cd183d03_fps_avg_aud.mp4	0	0	0.567835	0	1	up	blue	1	0	0
409	3	9	1	self	1.5	1.51692	red	1	right	right	GLO	right	close	1	intact	intact	October_25_2016_fps_avg_aud.mp4	0	0	0.834903	0	1	right	green	0	0	0
409	3	10	1	self	1.5	1.51611	yellow	1	down	down	GLO	left	far	1	intact	intact	db8b6c6f-c114-4747-8437-3bfc1210df49_fps_avg_aud.mp4	0	0	1.21155	0	1	left	yellow	1	0	0
409	3	11	1	self	1.5	1.51207	blue	1	left	left	GLO	right	far	1	intact	intact	July_2015_(2)_fps_avg_aud.mp4	0	0	1.10105	0	1	up	blue	1	0	0
409	3	12	1	self	0.5	0.515505	yellow	0	left	left	GLO	left	close	1	intact	intact	6d873e1d-8ad7-4688-a181-c3322982e4a6_fps_avg_aud.mp4	0	0	1.47104	0	1	left	yellow	1	0	0
409	3	13	1	self	0.5	0.515996	red	0	down	down	GLO	right	close	1	intact	intact	31c3bae2-faf4-4718-b53b-2e88624b3fa5_fps_avg_aud.mp4	0	0	0.734519	0	1	down	red	1	0	0
409	3	14	1	self	0.5	0.51065	red	0	down	down	GLO	left	close	1	intact	intact	ed9842b1-ccb5-4e6e-8fcb-d81eb3d6f297_fps_avg_aud.mp4	0	0	0.685302	0	1	down	red	1	0	0
409	3	15	1	self	0.5	0.515964	blue	0	up	up	GLO	left	close	1	intact	intact	August_2016_(1)_fps_avg_aud.mp4	0	0	0.833872	0	1	up	blue	1	0	0
409	3	16	1	self	0.5	0.511488	red	1	right	right	GLO	left	close	1	intact	intact	647890e0-5689-43cf-86ab-b37e61076130_fps_avg_aud.mp4	0	0	1.46769	0	1	down	red	1	0	0
409	3	17	1	self	0.5	0.516129	red	1	up	up	GLO	right	close	1	intact	intact	October_20_2016_fps_avg_aud.mp4	0	0	0.81503	0	1	down	red	1	0	0
409	3	18	1	self	0.5	0.51283	green	0	right	right	GLO	left	close	1	intact	intact	17bc9968-edac-4234-b3eb-c8487676c442_fps_avg_aud.mp4	0	0	1.34841	0	1	left	yellow	0	0	0
409	3	19	1	self	0.5	0.511762	red	1	right	right	GLO	right	far	1	intact	intact	801d308b-7fe8-4a7f-8ad6-dafa42c9e3af_fps_avg_aud.mp4	0	0	0.968048	0	1	down	red	1	0	0
409	3	20	1	self	0.5	0.509755	green	0	right	right	GLO	left	close	1	intact	intact	b70b2fc0-8728-4c47-a0fd-a887a904f1ee_fps_avg_aud.mp4	0	0	0.733391	0	1	right	green	1	0	0
409	3	21	1	self	0.5	0.510288	blue	0	up	up	GLO	left	far	1	intact	intact	Jan4_fps_avg_aud.mp4	0	0	0.733841	0	1	up	blue	1	0	0
409	3	22	1	self	0.5	0.514163	yellow	0	left	left	GLO	right	close	1	intact	intact	8e8c5e28-7fba-491b-88f9-891e8e26ddbd_fps_avg_aud.mp4	0	0	0.583608	0	1	left	yellow	1	0	0
409	3	23	1	self	0.5	0.510672	green	0	right	right	GLO	right	close	1	intact	intact	bb75a9e7-75e9-4641-8e0c-ecaabf7a7e69(1)_fps_avg_aud.mp4	0	0	0.734944	0	1	right	green	1	0	0
409	3	24	1	self	0.5	0.509961	blue	1	right	right	GLO	right	far	1	intact	intact	March25_2016_fps_avg_aud.mp4	0	0	0.84968	0	1	up	blue	1	0	0
409	3	25	1	self	0.5	0.509842	green	1	up	up	GLO	left	far	1	intact	intact	fd318c50-e133-4dc8-918b-b97094aebdf0_fps_avg_aud.mp4	0	0	1.0409	0	1	right	green	1	0	0
409	3	26	1	self	0.5	0.512695	red	1	up	up	GLO	right	close	1	intact	intact	Jun20_fps_avg_aud.mp4	0	0	1.08343	0	1	down	red	1	0	0
409	3	27	1	self	0.5	0.515655	red	0	down	down	GLO	right	far	1	intact	intact	37d023e5-2b94-437c-b04e-88100eb5850b_fps_avg_aud.mp4	0	0	0.750779	0	1	down	red	1	0	0
409	3	28	1	self	0.5	0.512917	green	0	right	right	GLO	right	far	1	intact	intact	d1495dc6-3264-40ae-807f-007f3ab4bdee_fps_avg_aud.mp4	0	0	1.49514	0	1	right	green	1	0	0
409	3	29	1	self	0.5	NaN	red	0	down	down	GLO	none	far	1	intact	intact	December_2015_fps_avg_aud.mp4	0	0	NaN	NaN	NaN	none	none	NaN	0	0
409	3	30	1	self	0.5	NaN	blue	1	right	right	GLO	none	close	1	intact	intact	Nov11_fps_avg_aud.mp4	0	0	NaN	NaN	NaN	none	none	NaN	0	0
409	3	31	1	self	0.5	NaN	green	0	right	right	GLO	none	far	1	intact	intact	6247a4ca-9a6e-47c1-91f4-5a9925a1c125_fps_avg_aud.mp4	0	0	NaN	NaN	NaN	none	none	NaN	0	0
409	3	32	1	self	0.5	NaN	blue	1	left	left	GLO	none	close	1	intact	intact	856001bb-aa8d-41ae-ad3d-fd9ff39c28c0_fps_avg_aud.mp4	0	0	NaN	NaN	NaN	none	none	NaN	0	0
409	3	33	1	self	0.5	NaN	blue	1	left	left	GLO	none	far	1	intact	intact	ac670a32-9758-4aa8-b876-775cfe4f2e47_fps_avg_aud.mp4	0	0	NaN	NaN	NaN	none	none	NaN	0	0
409	3	34	1	self	0.5	NaN	green	0	right	right	GLO	none	close	1	intact	intact	January_2016_(1)_fps_avg_aud.mp4	0	0	NaN	NaN	NaN	none	none	NaN	0	0
409	3	35	1	self	0.5	NaN	yellow	1	down	down	GLO	none	close	1	intact	intact	4d617426-ab8c-4125-9dcf-178529ca54a1_fps_avg_aud.mp4	0	0	NaN	NaN	NaN	none	none	NaN	0	0
409	3	36	1	self	0.5	NaN	red	0	down	down	GLO	none	far	1	intact	intact	Nmarch122015_fps_avg_aud.mp4	0	0	NaN	NaN	NaN	none	none	NaN	0	0
409	3	37	1	self	0.5	NaN	red	0	down	down	GLO	none	close	1	intact	intact	Jan8_fps_avg_aud.mp4	0	0	NaN	NaN	NaN	none	none	NaN	0	0
409	3	38	1	self	0.5	NaN	red	1	left	left	GLO	none	far	1	intact	intact	f0c0b40e-f75d-4798-8deb-2b993faeea9f_fps_avg_aud.mp4	0	0	NaN	NaN	NaN	none	none	NaN	0	0
409	3	39	1	self	0.5	NaN	green	1	up	up	GLO	none	close	1	intact	intact	980b240d-9e79-4cca-81da-f6d711752962_fps_avg_aud.mp4	0	0	NaN	NaN	NaN	none	none	NaN	0	0
409	3	40	1	self	0.5	NaN	red	0	down	down	GLO	none	close	1	intact	intact	a3e1ae8d-fc6e-4c2a-a65c-9024b3c9f810_fps_avg_aud.mp4	0	0	NaN	NaN	NaN	none	none	NaN	0	0
409	3	41	1	self	0.5	NaN	red	1	up	up	GLO	none	close	1	intact	intact	74863169-b4eb-4472-bb27-c309a4fed0aa_fps_avg_aud.mp4	0	0	NaN	NaN	NaN	none	none	NaN	0	0
409	3	42	1	self	0.5	NaN	green	0	right	right	GLO	none	close	1	intact	intact	92171dfa-1474-4f0d-8c37-ab1d226fa154(1)_fps_avg_aud.mp4	0	0	NaN	NaN	NaN	none	none	NaN	0	0
409	3	43	1	self	0.5	NaN	red	0	down	down	GLO	none	far	1	intact	intact	bd3765b8-eb64-440a-a4a8-b6804686fcae_fps_avg_aud.mp4	0	0	NaN	NaN	NaN	none	none	NaN	0	0
409	3	44	1	self	0.5	NaN	yellow	1	right	right	GLO	none	close	1	intact	intact	Feb1_fps_avg_aud.mp4	0	0	NaN	NaN	NaN	none	none	NaN	0	0
409	3	45	1	self	0.5	NaN	green	1	up	up	GLO	none	far	1	intact	intact	b4701d82-e6b3-47a6-bf5c-596818c9d778_fps_avg_aud.mp4	0	0	NaN	NaN	NaN	none	none	NaN	0	0
409	3	46	1	self	0.5	NaN	blue	0	up	up	GLO	none	close	1	intact	intact	a66e9cf1-4573-4450-a822-0bcc91474968_fps_avg_aud.mp4	0	0	NaN	NaN	NaN	none	none	NaN	0	0
409	3	47	1	self	0.5	NaN	red	0	down	down	GLO	none	far	1	intact	intact	02831e99-5ac8-4fc5-9e76-9a04224fb33e_fps_avg_aud.mp4	0	0	NaN	NaN	NaN	none	none	NaN	0	0
409	3	48	1	self	0.5	NaN	red	1	left	left	GLO	none	far	1	intact	intact	Oct13_fps_avg_aud.mp4	0	0	NaN	NaN	NaN	none	none	NaN	0	0
409	3	49	1	self	0.5	NaN	green	0	right	right	GLO	none	far	1	intact	intact	June_17_2015_fps_avg_aud.mp4	0	0	NaN	NaN	NaN	none	none	NaN	0	0
409	3	50	1	self	0.5	NaN	yellow	1	down	down	GLO	none	close	1	intact	intact	21ca1f40-8184-4506-9096-1849a40e04e2_fps_avg_aud.mp4	0	0	NaN	NaN	NaN	none	none	NaN	0	0
409	3	51	1	self	0.5	NaN	yellow	0	left	left	GLO	none	far	1	intact	intact	e5e9435d-267e-4f33-bd02-80f8eeedf363_fps_avg_aud.mp4	0	0	NaN	NaN	NaN	none	none	NaN	0	0
409	3	52	1	self	0.5	NaN	green	0	right	right	GLO	none	far	1	intact	intact	4d681112-07b2-4265-a7e1-d188bc4f8511_fps_avg_aud.mp4	0	0	NaN	NaN	NaN	none	none	NaN	0	0
409	3	53	1	self	0.5	NaN	red	0	down	down	GLO	none	far	1	intact	intact	Jnauary_2016_fps_avg_aud.mp4	0	0	NaN	NaN	NaN	none	none	NaN	0	0
409	3	54	1	self	0.5	NaN	blue	1	right	right	GLO	none	close	1	intact	intact	Nov10_fps_avg_aud.mp4	0	0	NaN	NaN	NaN	none	none	NaN	0	0
409	3	55	1	self	0.5	NaN	yellow	0	left	left	GLO	none	close	1	intact	intact	January_2016_(3)_fps_avg_aud.mp4	0	0	NaN	NaN	NaN	none	none	NaN	0	0
409	3	56	1	self	0.5	NaN	blue	0	up	up	GLO	none	far	1	intact	intact	Apr13_fps_avg_aud.mp4	0	0	NaN	NaN	NaN	none	none	NaN	0	0
409	3	57	1	self	0.5	NaN	blue	0	up	up	GLO	none	far	1	intact	intact	Dec27_fps_avg_aud.mp4	0	0	NaN	NaN	NaN	none	none	NaN	0	0
409	3	58	1	self	0.5	NaN	yellow	1	down	down	GLO	none	close	1	intact	intact	16ad27d6-0718-41b8-94e7-1c37789ce6cb_fps_avg_aud.mp4	0	0	NaN	NaN	NaN	none	none	NaN	0	0
409	3	59	1	self	0.5	NaN	red	0	down	down	GLO	none	far	1	intact	intact	Mar4_fps_avg_aud.mp4	0	0	NaN	NaN	NaN	none	none	NaN	0	0
409	3	60	1	self	0.5	NaN	green	0	right	right	GLO	none	close	1	intact	intact	jun14_fps_avg_aud.mp4	0	0	NaN	NaN	NaN	none	none	NaN	0	0
409	3	61	1	self	0.5	NaN	yellow	0	left	left	GLO	none	far	1	intact	intact	April_2015_fps_avg_aud.mp4	0	0	NaN	NaN	NaN	none	none	NaN	0	0
409	3	62	1	self	0.5	NaN	yellow	0	left	left	GLO	none	close	1	intact	intact	d59b9ee2-e1af-4171-a59e-9daefced695e_fps_avg_aud.mp4	0	0	NaN	NaN	NaN	none	none	NaN	0	0
409	3	63	1	self	0.5	NaN	yellow	1	down	down	GLO	none	close	1	intact	intact	b35409aa-6325-4736-bc0d-526af5b26b83_fps_avg_aud.mp4	0	0	NaN	NaN	NaN	none	none	NaN	0	0
409	3	64	1	self	0.5	NaN	yellow	1	up	up	GLO	none	close	1	intact	intact	1ad967f4-1728-4eb7-88a5-9d6ad488c3b4_fps_avg_aud.mp4	0	0	NaN	NaN	NaN	none	none	NaN	0	0
409	3	65	1	self	0.5	NaN	yellow	0	left	left	GLO	none	close	1	intact	intact	05a4f0ad-5d14-4bd5-8c2b-7db284b369ce_fps_avg_aud.mp4	0	0	NaN	NaN	NaN	none	none	NaN	0	0
409	3	66	1	self	0.5	NaN	red	1	up	up	GLO	none	far	1	intact	intact	Nmarch1222015_fps_avg_aud.mp4	0	0	NaN	NaN	NaN	none	none	NaN	0	0
409	3	67	1	self	0.5	NaN	red	1	up	up	GLO	none	far	1	intact	intact	april_23_2015_fps_avg_aud.mp4	0	0	NaN	NaN	NaN	none	none	NaN	0	0
409	3	68	1	self	0.5	NaN	red	0	down	down	GLO	none	close	1	intact	intact	July23_fps_avg_aud.mp4	0	0	NaN	NaN	NaN	none	none	NaN	0	0
409	3	69	1	self	0.5	NaN	blue	0	up	up	GLO	none	close	1	intact	intact	80bae024-90b7-4369-88be-93c1000385ef_fps_avg_aud.mp4	0	0	NaN	NaN	NaN	none	none	NaN	0	0
409	3	70	1	self	0.5	NaN	red	1	right	right	GLO	none	far	1	intact	intact	Dec23_fps_avg_aud.mp4	0	0	NaN	NaN	NaN	none	none	NaN	0	0
409	3	71	1	self	0.5	NaN	green	1	up	up	GLO	none	far	1	intact	intact	4db3f410-b7dd-4157-a876-374c50f0a479_fps_avg_aud.mp4	0	0	NaN	NaN	NaN	none	none	NaN	0	0
409	3	72	1	self	0.5	NaN	blue	1	right	right	GLO	none	far	1	intact	intact	e57a35d6-39b7-4b9c-a4a1-844e0bebd3c1_fps_avg_aud.mp4	0	0	NaN	NaN	NaN	none	none	NaN	0	0
409	3	73	1	self	0.5	NaN	yellow	0	left	left	GLO	none	close	1	intact	intact	June_2016_fps_avg_aud.mp4	0	0	NaN	NaN	NaN	none	none	NaN	0	0
409	3	74	1	self	0.5	NaN	red	0	down	down	GLO	none	close	1	intact	intact	76b50970-7143-4993-96e1-54ee18b8278e_fps_avg_aud.mp4	0	0	NaN	NaN	NaN	none	none	NaN	0	0
409	3	75	1	self	0.5	NaN	blue	1	left	left	GLO	none	far	1	intact	intact	33d05c43-ee7c-4877-9419-344c4009c91e_fps_avg_aud.mp4	0	0	NaN	NaN	NaN	none	none	NaN	0	0
409	3	76	1	self	0.5	NaN	yellow	1	right	right	GLO	none	far	1	intact	intact	779aa7ea-420b-4390-a149-5f24d3acfbfd_fps_avg_aud.mp4	0	0	NaN	NaN	NaN	none	none	NaN	0	0
409	3	77	1	self	0.5	NaN	red	1	right	right	GLO	none	far	1	intact	intact	01790276-7d56-4063-9522-da49270e2a6b_fps_avg_aud.mp4	0	0	NaN	NaN	NaN	none	none	NaN	0	0
409	3	78	1	self	0.5	NaN	blue	0	up	up	GLO	none	close	1	intact	intact	ac2b9dfa-7a4b-40ef-9499-c883a9127ad7_fps_avg_aud.mp4	0	0	NaN	NaN	NaN	none	none	NaN	0	0
409	3	79	1	self	0.5	NaN	red	1	left	left	GLO	none	far	1	intact	intact	Nov6_fps_avg_aud.mp4	0	0	NaN	NaN	NaN	none	none	NaN	0	0
409	3	80	1	self	0.5	NaN	yellow	1	right	right	GLO	none	close	1	intact	intact	e2244423-2494-4cef-96da-ceaa115b3e8d_fps_avg_aud.mp4	0	0	NaN	NaN	NaN	none	none	NaN	0	0
409	3	81	1	self	0.5	NaN	blue	0	up	up	GLO	none	far	1	intact	intact	a24b6226-d6e8-4655-b874-d79fefacec8c_fps_avg_aud.mp4	0	0	NaN	NaN	NaN	none	none	NaN	0	0
409	3	82	1	self	0.5	NaN	yellow	0	left	left	GLO	none	close	1	intact	intact	abff9cfd-d67a-47e2-bc3f-92551e8414e2(1)_fps_avg_aud.mp4	0	0	NaN	NaN	NaN	none	none	NaN	0	0
409	3	83	1	self	0.5	NaN	yellow	0	left	left	GLO	none	far	1	intact	intact	May15_fps_avg_aud.mp4	0	0	NaN	NaN	NaN	none	none	NaN	0	0
409	3	84	1	self	0.5	NaN	yellow	0	left	left	GLO	none	close	1	intact	intact	Oct1_fps_avg_aud.mp4	0	0	NaN	NaN	NaN	none	none	NaN	0	0
409	3	85	1	self	0.5	NaN	blue	1	down	down	GLO	none	close	1	intact	intact	Mar14_fps_avg_aud.mp4	0	0	NaN	NaN	NaN	none	none	NaN	0	0
409	3	86	1	self	0.5	NaN	yellow	0	left	left	GLO	none	far	1	intact	intact	Jan31_fps_avg_aud.mp4	0	0	NaN	NaN	NaN	none	none	NaN	0	0
409	3	87	1	self	0.5	NaN	blue	1	down	down	GLO	none	close	1	intact	intact	8131cc16-56a9-45d8-8dab-20ead5938e0a_fps_avg_aud.mp4	0	0	NaN	NaN	NaN	none	none	NaN	0	0
409	3	88	1	self	0.5	NaN	red	1	up	up	GLO	none	close	1	intact	intact	f7063dab-b99f-4ced-99a1-d8e067de3ccd_fps_avg_aud.mp4	0	0	NaN	NaN	NaN	none	none	NaN	0	0
409	3	89	1	self	0.5	NaN	blue	0	up	up	GLO	none	far	1	intact	intact	fdcb9b5f-28c7-4da4-867c-57e1763a716c_fps_avg_aud.mp4	0	0	NaN	NaN	NaN	none	none	NaN	0	0
409	3	90	1	self	0.5	NaN	blue	1	down	down	GLO	none	far	1	intact	intact	53f27130-5392-4410-b48f-90a712697cfb_fps_avg_aud.mp4	0	0	NaN	NaN	NaN	none	none	NaN	0	0
409	3	91	1	self	0.5	NaN	green	0	right	right	GLO	none	far	1	intact	intact	58fa2b05-06d6-4325-b14b-27b0a9645ea5_fps_avg_aud.mp4	0	0	NaN	NaN	NaN	none	none	NaN	0	0
409	3	92	1	self	0.5	NaN	blue	0	up	up	GLO	none	far	1	intact	intact	b1ade3a7-f9fd-4229-8a80-df334c184531_fps_avg_aud.mp4	0	0	NaN	NaN	NaN	none	none	NaN	0	0
409	3	93	1	self	0.5	NaN	yellow	1	down	down	GLO	none	close	1	intact	intact	3787d5d7-bc65-4720-b93c-344c8ca85f75_fps_avg_aud.mp4	0	0	NaN	NaN	NaN	none	none	NaN	0	0
409	4	1	0	self	1.5	1.50942	yellow	1	up	up	GLO	right	far	1	intact	intact	Oct31_fps_avg_aud.mp4	0	0	1.10156	0	1	left	yellow	1	0.001	low
409	4	2	0	self	1.5	1.51067	blue	1	right	right	GLO	right	far	1	intact	intact	7ef90bcf-5b2a-4df5-b522-5d3f1e9badf1_fps_avg_aud.mp4	0	0	1.48221	0	1	up	blue	1	0.002	low
409	4	3	0	self	1.5	1.51175	red	1	right	right	GLO	left	close	1	intact	intact	18d4ec1c-7f36-4828-8594-27b6bfd3c309_fps_avg_aud.mp4	0	0	0.766873	0	1	down	red	1	0.003	low
409	4	4	0	self	1.5	1.50945	blue	1	left	left	GLO	left	close	1	intact	intact	July_2015_(2)_fps_avg_aud.mp4	0	0	1.31789	0	1	up	blue	1	0.004	low
409	4	5	0	self	1.5	1.51116	red	1	left	left	GLO	left	far	1	intact	intact	cea732af-276b-4e98-ac0e-85adfd7a4545_fps_avg_aud.mp4	0	0	1.79321	0	1	down	red	1	0.005	low
409	4	6	0	self	1.5	1.51015	green	1	up	up	GLO	right	far	1	intact	intact	Febraury_2016_fps_avg_aud.mp4	0	0	1.20091	0	1	right	green	1	0.006	low
409	4	7	0	self	1.5	1.51218	blue	1	down	down	GLO	left	close	1	intact	intact	July_2016_fps_avg_aud.mp4	0	0	1.11546	0	1	up	blue	1	0.007	low
409	4	8	0	self	1.5	1.51307	yellow	1	up	up	GLO	left	far	1	intact	intact	june_19_2015_fps_avg_aud.mp4	0	0	0.927322	0	1	left	yellow	1	0.008	low
409	4	9	0	self	1.5	1.51361	green	0	right	right	GLO	left	far	1	intact	intact	8c9efcf8-40ef-4975-90f5-9d2449140a05_fps_avg_aud.mp4	0	0	0.652108	0	1	right	green	1	0.009	low
409	4	10	0	self	1.5	1.51165	yellow	0	left	left	GLO	left	far	1	intact	intact	Feb1_fps_avg_aud.mp4	0	0	1.95093	0	1	left	yellow	1	0.01	low
409	4	11	0	self	1.5	1.51211	blue	1	down	down	GLO	right	far	1	intact	intact	05c4b895-8d51-48d4-93fd-4e37519019a0_fps_avg_aud.mp4	0	0	2.45141	0	1	up	blue	1	0.011	low
409	4	12	0	self	1.5	1.51217	red	0	down	down	GLO	left	far	1	intact	intact	cb6ef54e-2b4c-4064-8d68-1ca2b2e8a47c_fps_avg_aud.mp4	0	0	1.40137	0	1	down	red	1	0.012	low
409	4	13	0	self	1.5	1.51065	blue	0	up	up	GLO	left	far	1	intact	intact	jan31_2016_fps_avg_aud.mp4	0	0	2.80277	0	1	up	blue	1	0.013	low
409	4	14	0	self	1.5	1.51227	blue	0	up	up	GLO	right	close	1	intact	intact	a5a4b0ce-b05f-41d9-b172-00b13f0d8828_fps_avg_aud.mp4	0	0	0.710614	0	1	up	blue	1	0.014	low
409	4	15	0	self	1.5	1.50907	yellow	1	down	down	GLO	left	far	1	intact	intact	ea6675d4-3684-48c3-9bd0-c32d38c48c9e_fps_avg_aud.mp4	0	0	1.10182	0	1	left	yellow	1	0.015	low
409	4	16	0	self	1.5	1.51105	red	1	up	up	GLO	left	far	1	intact	intact	deff750b-b4a4-440e-a47d-eb4c56f93a9d_fps_avg_aud.mp4	0	0	0.868277	0	1	down	red	1	0.016	low
409	4	17	0	self	1.5	1.51034	red	1	right	right	GLO	right	close	1	intact	intact	bd6f74c6-a8d8-4bf6-bf1e-d008c6733318_fps_avg_aud.mp4	0	0	0.899596	0	1	down	red	1	0.017	low
409	4	18	0	self	1.5	1.5109	yellow	1	right	right	GLO	left	far	1	intact	intact	May25_fps_avg_aud.mp4	0	0	1.11718	0	1	left	yellow	1	0.018	low
409	4	19	0	self	1.5	1.50985	yellow	0	left	left	GLO	right	far	1	intact	intact	856001bb-aa8d-41ae-ad3d-fd9ff39c28c0_fps_avg_aud.mp4	0	0	0.782622	0	1	left	yellow	1	0.019	low
409	4	20	0	self	1.5	1.51079	green	0	right	right	GLO	right	close	1	intact	intact	d021cb9c-36bf-48fb-9474-23511a956f6a_fps_avg_aud.mp4	0	0	0.714108	0	1	right	green	1	0.02	low
409	4	21	0	self	1.5	1.5125	red	1	up	up	GLO	left	far	1	intact	intact	02c095ee-b711-4594-b27d-87092fa292bb_fps_avg_aud.mp4	0	0	0.884669	0	1	down	red	1	0.021	low
409	4	22	0	self	1.5	1.51098	blue	0	up	up	GLO	right	close	1	intact	intact	a066c606-67e2-4c5d-b13d-471a21a18633_fps_avg_aud.mp4	0	0	1.3695	0	1	up	blue	1	0.022	low
409	4	23	0	self	1.5	NaN	yellow	0	left	left	GLO	none	far	1	intact	intact	November_2015_(2)_fps_avg_aud.mp4	0	0	NaN	NaN	NaN	none	none	NaN	0.022	low
409	4	24	0	self	1.5	NaN	green	0	right	right	GLO	none	far	1	intact	intact	Nov30_fps_avg_aud.mp4	0	0	NaN	NaN	NaN	none	none	NaN	0.022	low
409	4	25	0	self	1.5	NaN	yellow	0	left	left	GLO	none	far	1	intact	intact	May28_fps_avg_aud.mp4	0	0	NaN	NaN	NaN	none	none	NaN	0.022	low
409	4	26	0	self	1.5	NaN	yellow	1	down	down	GLO	none	far	1	intact	intact	Apr4_fps_avg_aud.mp4	0	0	NaN	NaN	NaN	none	none	NaN	0.022	low
409	4	27	0	self	1.5	NaN	green	1	down	down	GLO	none	close	1	intact	intact	919b74e0-dd30-4685-b063-8556e1e10c55_fps_avg_aud.mp4	0	0	NaN	NaN	NaN	none	none	NaN	0.022	low
409	4	28	0	self	1.5	NaN	green	0	right	right	GLO	none	close	1	intact	intact	Oct30_fps_avg_aud.mp4	0	0	NaN	NaN	NaN	none	none	NaN	0.022	low
409	4	29	0	self	1.5	NaN	blue	0	up	up	GLO	none	close	1	intact	intact	d908683d-e7f6-43aa-ac1d-27222b281fc0_fps_avg_aud.mp4	0	0	NaN	NaN	NaN	none	none	NaN	0.022	low
409	4	30	0	self	1.5	NaN	red	0	down	down	GLO	none	far	1	intact	intact	01790276-7d56-4063-9522-da49270e2a6b_fps_avg_aud.mp4	0	0	NaN	NaN	NaN	none	none	NaN	0.022	low
409	4	31	0	self	1.5	NaN	red	0	down	down	GLO	none	far	1	intact	intact	5c88b1ee-81ac-4658-85d2-80068b2841d0_fps_avg_aud.mp4	0	0	NaN	NaN	NaN	none	none	NaN	0.022	low
409	4	32	0	self	1.5	NaN	yellow	1	up	up	GLO	none	close	1	intact	intact	ea69ea96-da66-4080-96c0-6671ca9fd051_fps_avg_aud.mp4	0	0	NaN	NaN	NaN	none	none	NaN	0.022	low
409	4	33	0	self	1.5	NaN	blue	1	left	left	GLO	none	close	1	intact	intact	b5bcd3a2-267e-4413-b730-c3121b8457ab_fps_avg_aud.mp4	0	0	NaN	NaN	NaN	none	none	NaN	0.022	low
409	4	34	0	self	1.5	NaN	green	0	right	right	GLO	none	close	1	intact	intact	abff9cfd-d67a-47e2-bc3f-92551e8414e2(1)_fps_avg_aud.mp4	0	0	NaN	NaN	NaN	none	none	NaN	0.022	low
409	4	35	0	self	1.5	NaN	yellow	1	right	right	GLO	none	far	1	intact	intact	c79830e0-a78a-415b-b7be-95bf79fe1a3a_fps_avg_aud.mp4	0	0	NaN	NaN	NaN	none	none	NaN	0.022	low
409	4	36	0	self	1.5	NaN	red	0	down	down	GLO	none	close	1	intact	intact	1c37d23d-fc2a-4933-8024-0106ebebe6c4_fps_avg_aud.mp4	0	0	NaN	NaN	NaN	none	none	NaN	0.022	low
409	4	37	0	self	1.5	NaN	green	1	down	down	GLO	none	close	1	intact	intact	76b50970-7143-4993-96e1-54ee18b8278e_fps_avg_aud.mp4	0	0	NaN	NaN	NaN	none	none	NaN	0.022	low
409	5	1	0	auto	1.5	1.51516	blue	0	up	up	GLO	right	far	1	intact	intact	b03a76d5-df04-4f1c-a621-096b7428dc43_fps_avg_aud.mp4	1	0	2.16901	0	1	up	blue	1	0.023	low
409	5	2	0	auto	1.5	1.51036	red	1	up	up	GLO	right	close	1	intact	intact	1ad967f4-1728-4eb7-88a5-9d6ad488c3b4_fps_avg_aud.mp4	1	37	0.960736	0.598952	2	down	red	1	0.024	low
409	5	3	0	auto	1.5	1.5132	red	1	right	right	GLO	right	close	0	intact	none	none	0	0	0.93447	0	1	down	red	1	0.025	low
409	5	4	0	auto	1.5	1.51301	yellow	0	left	left	GLO	left	far	0	intact	none	none	0	0	1.36757	0	1	left	yellow	1	0.026	low
409	5	5	0	auto	1.5	1.5132	blue	1	left	left	GLO	left	far	1	intact	intact	b151d8a6-cbea-4f58-ab0f-6c21bc545c88_fps_avg_aud.mp4	1	0	1.30965	0	1	up	blue	1	0.027	low
409	5	6	0	auto	1.5	1.5118	green	1	down	down	GLO	left	close	1	intact	intact	Apr30_fps_avg_aud.mp4	1	0	1.31633	0	1	right	green	1	0.028	low
409	5	7	0	auto	1.5	1.51052	red	1	right	right	GLO	right	close	1	intact	intact	960000ea-ab44-4258-8824-51f8fdf7a806_fps_avg_aud.mp4	1	53	1.25134	0.629821	2	down	red	1	0.029	low
409	5	8	0	auto	1.5	1.50909	green	1	up	up	GLO	left	far	0	intact	none	none	0	0	1.08461	0	1	right	green	1	0.03	low
409	5	9	0	auto	1.5	1.51167	yellow	1	up	up	GLO	left	far	1	intact	intact	ac670a32-9758-4aa8-b876-775cfe4f2e47_fps_avg_aud.mp4	1	0	1.09337	0	1	left	yellow	1	0.031	low
409	5	10	0	auto	1.5	1.51283	blue	1	left	left	GLO	right	close	1	intact	intact	7fe27e44-a1be-4335-89c2-e510e239df64_fps_avg_aud.mp4	1	30	1.42859	0.401108	2	up	blue	1	0.032	low
409	5	11	0	auto	1.5	1.51172	blue	1	right	right	GLO	right	close	1	intact	intact	ed5c9b46-1903-43ac-bc9d-4681004c3550_fps_avg_aud.mp4	1	0	0.899737	0	1	up	blue	1	0.033	low
409	5	12	0	auto	1.5	1.51036	yellow	1	right	right	GLO	left	close	1	intact	intact	Oct1_fps_avg_aud.mp4	1	0	1.08432	0	1	left	yellow	1	0.034	low
409	5	13	0	auto	1.5	1.50864	green	0	right	right	GLO	right	far	0	intact	none	none	0	0	0.552036	0	1	right	green	1	0.035	low
409	5	14	0	auto	1.5	1.51113	blue	1	left	left	GLO	right	close	0	intact	none	none	0	0	2.41826	0	1	up	blue	1	0.036	low
409	5	15	0	auto	1.5	1.51136	red	0	down	down	GLO	left	far	1	intact	intact	January_2016_(4)_fps_avg_aud.mp4	1	0	0.952458	0	1	down	red	1	0.037	low
409	5	16	0	auto	1.5	1.50922	red	1	up	up	GLO	right	close	1	intact	intact	74863169-b4eb-4472-bb27-c309a4fed0aa_fps_avg_aud.mp4	1	18	0.74276	0.208242	2	down	red	1	0.038	low
409	5	17	0	auto	1.5	1.50976	red	1	left	left	GLO	right	far	0	intact	none	none	0	0	1.035	0	1	down	red	1	0.039	low
409	5	18	0	auto	1.5	1.51035	red	0	down	down	GLO	right	close	1	intact	intact	8fa6e47a-355a-4a52-986e-ef49886619e0_fps_avg_aud.mp4	1	0	1.35195	0	1	down	red	1	0.04	low
409	5	19	0	auto	1.5	1.51117	blue	0	up	up	GLO	right	close	1	intact	intact	September_2016_(2)_fps_avg_aud.mp4	1	0	0.79362	0	1	up	blue	1	0.041	low
409	5	20	0	auto	1.5	1.51131	green	1	up	up	GLO	left	far	0	intact	none	none	0	0	0.751435	0	1	right	green	1	0.042	low
409	5	21	0	auto	1.5	1.5081	green	1	up	up	GLO	right	close	0	intact	none	none	0	0	0.600947	0	1	right	green	1	0.043	low
409	5	22	0	auto	1.5	1.50924	blue	0	up	up	GLO	right	close	1	intact	intact	fd4a95d6-f171-4c0b-8de2-e9ca909c9eff_fps_avg_aud.mp4	1	19	2.02889	0.233798	4	up	blue	1	0.044	low
409	5	23	0	auto	1.5	NaN	red	1	up	up	GLO	none	close	1	intact	intact	Aug30_fps_avg_aud.mp4	0	0	NaN	NaN	NaN	none	none	NaN	0.044	low
409	5	24	0	auto	1.5	NaN	blue	1	down	down	GLO	none	far	0	intact	none	none	0	0	NaN	NaN	NaN	none	none	NaN	0.044	low
409	5	25	0	auto	1.5	NaN	blue	1	down	down	GLO	none	close	1	intact	intact	2ee32cdc-eb1b-4b14-b0d7-fb25b7ed46e3_fps_avg_aud.mp4	0	0	NaN	NaN	NaN	none	none	NaN	0.044	low
409	5	26	0	auto	1.5	NaN	blue	0	up	up	GLO	none	close	1	intact	intact	May_18_2016_fps_avg_aud.mp4	0	0	NaN	NaN	NaN	none	none	NaN	0.044	low
409	5	27	0	auto	1.5	NaN	blue	1	down	down	GLO	none	far	1	intact	intact	Sep27_fps_avg_aud.mp4	0	0	NaN	NaN	NaN	none	none	NaN	0.044	low
409	5	28	0	auto	1.5	NaN	yellow	0	left	left	GLO	none	far	0	intact	none	none	0	0	NaN	NaN	NaN	none	none	NaN	0.044	low
409	5	29	0	auto	1.5	NaN	blue	0	up	up	GLO	none	far	1	intact	intact	108f257a-1892-40f5-b9e3-6eb0557bc08c(1)_fps_avg_aud.mp4	0	0	NaN	NaN	NaN	none	none	NaN	0.044	low
409	5	30	0	auto	1.5	NaN	red	1	up	up	GLO	none	far	0	intact	none	none	0	0	NaN	NaN	NaN	none	none	NaN	0.044	low
409	5	31	0	auto	1.5	NaN	green	1	down	down	GLO	none	close	1	intact	intact	Mar14_fps_avg_aud.mp4	0	0	NaN	NaN	NaN	none	none	NaN	0.044	low
409	5	32	0	auto	1.5	NaN	green	0	right	right	GLO	none	far	1	intact	intact	e1d4becd-1ca6-41b0-82ab-58d50a368204_fps_avg_aud.mp4	0	0	NaN	NaN	NaN	none	none	NaN	0.044	low
409	5	33	0	auto	1.5	NaN	yellow	0	left	left	GLO	none	close	0	intact	none	none	0	0	NaN	NaN	NaN	none	none	NaN	0.044	low
409	5	34	0	auto	1.5	NaN	red	0	down	down	GLO	none	close	1	intact	intact	October_14_2016_fps_avg_aud.mp4	0	0	NaN	NaN	NaN	none	none	NaN	0.044	low
409	5	35	0	auto	1.5	NaN	green	0	right	right	GLO	none	far	1	intact	intact	November_2016_fps_avg_aud.mp4	0	0	NaN	NaN	NaN	none	none	NaN	0.044	low
409	5	36	0	auto	1.5	NaN	yellow	0	left	left	GLO	none	close	0	intact	none	none	0	0	NaN	NaN	NaN	none	none	NaN	0.044	low
409	5	37	0	auto	1.5	NaN	red	1	right	right	GLO	none	close	0	intact	none	none	0	0	NaN	NaN	NaN	none	none	NaN	0.044	low
409	6	1	0	auto	1.5	1.51706	yellow	1	up	up	GLO	left	close	0	intact	none	none	0	0	1.09228	0	1	left	yellow	1	0.054	high
409	6	2	0	auto	1.5	1.51243	red	0	down	down	GLO	right	close	1	intact	intact	Nov19_fps_avg_aud.mp4	1	0	1.91823	0	1	down	red	1	0.064	high
409	6	3	0	auto	1.5	1.51181	red	0	down	down	GLO	left	far	1	intact	intact	5a4ed86a-8ef5-4056-813c-083746f26c03_fps_avg_aud.mp4	1	0	0.798791	0	1	down	red	1	0.074	high
409	6	4	0	auto	1.5	1.50886	red	0	down	down	GLO	left	close	1	intact	intact	16fe28b7-019b-49e7-9b4b-6b9fba85fe3d_fps_avg_aud.mp4	1	0	0.666027	0	1	down	red	1	0.084	high
409	6	5	0	auto	1.5	1.50835	blue	1	right	right	GLO	left	close	1	intact	intact	May_18_2016_fps_avg_aud.mp4	1	0	0.880468	0	1	up	blue	1	0.094	high
409	6	6	0	auto	1.5	1.51132	green	1	left	left	GLO	right	close	1	intact	intact	Oct13_fps_avg_aud.mp4	1	19	1.84678	0.250942	2	right	green	1	0.104	high
409	6	7	0	auto	1.5	1.51074	yellow	0	left	left	GLO	right	close	1	intact	intact	326ee18c-0cd5-4c39-ac0f-082f53449aa4_fps_avg_aud.mp4	1	0	0.518087	0	1	left	yellow	1	0.114	high
409	6	8	0	auto	1.5	1.50963	blue	0	up	up	GLO	right	close	0	intact	none	none	0	0	0.992691	0	1	up	blue	1	0.124	high
409	6	9	0	auto	1.5	1.50916	green	0	right	right	GLO	right	close	0	intact	none	none	0	0	0.817728	0	1	right	green	1	0.134	high
409	6	10	0	auto	1.5	1.51262	green	0	right	right	GLO	left	far	1	intact	intact	aaed05cf-98e5-42ad-91f7-ba579fcda996_fps_avg_aud.mp4	1	0	0.858368	0	1	right	green	1	0.144	high
409	6	11	0	auto	1.5	1.51689	yellow	0	left	left	GLO	right	close	0	intact	none	none	0	0	1.45271	0	1	left	yellow	1	0.154	high
409	6	12	0	auto	1.5	1.51275	yellow	0	left	left	GLO	right	close	1	intact	intact	b4701d82-e6b3-47a6-bf5c-596818c9d778_fps_avg_aud.mp4	1	15	0.608885	0.162073	2	left	yellow	1	0.164	high
409	6	13	0	auto	1.5	1.50941	green	0	right	right	GLO	left	far	1	intact	intact	01d130af-ffff-4cd1-b39d-35c47d44cd3d_fps_avg_aud.mp4	1	0	0.636441	0	1	right	green	1	0.174	high
409	6	14	0	auto	1.5	1.51061	blue	1	right	right	GLO	right	close	1	intact	intact	fc2af016-0a80-4148-823b-d9176c33cf3a_fps_avg_aud.mp4	1	0	0.644067	0	1	up	blue	1	0.184	high
409	6	15	0	auto	1.5	1.51086	green	0	right	right	GLO	right	close	1	intact	intact	e2244423-2494-4cef-96da-ceaa115b3e8d_fps_avg_aud.mp4	1	13	0.828553	0.14447	2	right	green	1	0.194	high
409	6	16	0	auto	1.5	1.51413	blue	0	up	up	GLO	left	close	0	intact	none	none	0	0	0.768265	0	1	up	blue	1	0.204	high
409	6	17	0	auto	1.5	1.51032	red	1	left	left	GLO	left	close	1	intact	intact	bd3765b8-eb64-440a-a4a8-b6804686fcae_fps_avg_aud.mp4	1	0	1.06784	0	1	down	red	1	0.214	high
409	6	18	0	auto	1.5	1.51091	green	1	left	left	GLO	left	far	1	intact	intact	4d7a8a8c-063f-4a89-bd24-c32713b6ffa7_fps_avg_aud.mp4	1	0	1.21529	0	1	right	green	1	0.224	high
409	6	19	0	auto	1.5	1.51056	green	1	down	down	GLO	left	close	1	intact	intact	a5a4b0ce-b05f-41d9-b172-00b13f0d8828_fps_avg_aud.mp4	1	0	0.64583	0	1	right	green	1	0.234	high
409	6	20	0	auto	1.5	1.50858	green	1	up	up	GLO	right	close	0	intact	none	none	0	0	0.618411	0	1	right	green	1	0.244	high
409	6	21	0	auto	1.5	1.51011	yellow	0	left	left	GLO	left	close	0	intact	none	none	0	0	0.663323	0	1	left	yellow	1	0.254	high
409	6	22	0	auto	1.5	1.51119	yellow	0	left	left	GLO	left	far	1	intact	intact	April_2015_(1)_fps_avg_aud.mp4	1	0	1.8623	0	1	right	green	0	0.244	high
409	6	23	0	auto	1.5	1.51113	blue	0	up	up	GLO	right	far	1	intact	intact	may_2015_fps_avg_aud.mp4	1	12	1.01702	0.139983	2	up	blue	1	0.254	high
409	6	24	0	auto	1.5	1.50949	yellow	1	right	right	GLO	left	close	0	intact	none	none	0	0	0.875257	0	1	left	yellow	1	0.264	high
409	6	25	0	auto	1.5	NaN	blue	1	right	right	GLO	none	far	1	intact	intact	Feb7_fps_avg_aud.mp4	0	0	NaN	NaN	NaN	none	none	NaN	0.264	high
409	6	26	0	auto	1.5	NaN	blue	1	down	down	GLO	none	far	0	intact	none	none	0	0	NaN	NaN	NaN	none	none	NaN	0.264	high
409	6	27	0	auto	1.5	NaN	yellow	0	left	left	GLO	none	close	1	intact	intact	October_14_2016_fps_avg_aud.mp4	0	0	NaN	NaN	NaN	none	none	NaN	0.264	high
409	6	28	0	auto	1.5	NaN	green	1	down	down	GLO	none	far	1	intact	intact	8b186ca3-65a3-4740-8611-404063ae0ec7_fps_avg_aud.mp4	0	0	NaN	NaN	NaN	none	none	NaN	0.264	high
409	6	29	0	auto	1.5	NaN	blue	1	right	right	GLO	none	far	1	intact	intact	e57a35d6-39b7-4b9c-a4a1-844e0bebd3c1_fps_avg_aud.mp4	0	0	NaN	NaN	NaN	none	none	NaN	0.264	high
409	6	30	0	auto	1.5	NaN	green	0	right	right	GLO	none	far	1	intact	intact	049f3843-4d05-4200-8b41-7c0b71c68f4c_fps_avg_aud.mp4	0	0	NaN	NaN	NaN	none	none	NaN	0.264	high
409	6	31	0	auto	1.5	NaN	yellow	1	right	right	GLO	none	close	1	intact	intact	June_112016_fps_avg_aud.mp4	0	0	NaN	NaN	NaN	none	none	NaN	0.264	high
409	6	32	0	auto	1.5	NaN	green	0	right	right	GLO	none	close	1	intact	intact	July2_fps_avg_aud.mp4	0	0	NaN	NaN	NaN	none	none	NaN	0.264	high
409	6	33	0	auto	1.5	NaN	red	0	down	down	GLO	none	close	1	intact	intact	ec93e301-9c09-4bba-94b5-edac54ba0e07_fps_avg_aud.mp4	0	0	NaN	NaN	NaN	none	none	NaN	0.264	high
409	6	34	0	auto	1.5	NaN	blue	1	down	down	GLO	none	far	1	intact	intact	342c3db7-0e7e-4cf9-b04c-0d7bba48d8bb_fps_avg_aud.mp4	0	0	NaN	NaN	NaN	none	none	NaN	0.264	high
409	6	35	0	auto	1.5	NaN	red	1	up	up	GLO	none	close	1	intact	intact	b502b8fe-bf35-4777-bc2b-b5e93b1b3223_fps_avg_aud.mp4	0	0	NaN	NaN	NaN	none	none	NaN	0.264	high
409	6	36	0	auto	1.5	NaN	green	0	right	right	GLO	none	far	1	intact	intact	647890e0-5689-43cf-86ab-b37e61076130_fps_avg_aud.mp4	0	0	NaN	NaN	NaN	none	none	NaN	0.264	high
409	6	37	0	auto	1.5	NaN	red	1	up	up	GLO	none	close	0	intact	none	none	0	0	NaN	NaN	NaN	none	none	NaN	0.264	high
409	7	1	0	self	1.5	1.51715	red	0	down	down	GLO	right	far	1	intact	intact	August_2015_fps_avg_aud.mp4	0	0	1.0665	0	1	down	red	1	0.274	high
409	7	2	0	self	1.5	1.51127	blue	0	up	up	GLO	left	close	1	intact	intact	June_2016_(2)_fps_avg_aud.mp4	0	0	0.935354	0	1	up	blue	1	0.284	high
409	7	3	0	self	1.5	1.51036	green	0	right	right	GLO	right	close	1	intact	intact	942f20a2-a776-400d-9488-0c1647ebd585_fps_avg_aud.mp4	0	0	1.15218	0	1	left	yellow	0	0.274	high
409	7	4	0	self	1.5	1.50973	green	0	right	right	GLO	left	close	1	intact	intact	Dec13_fps_avg_aud.mp4	0	0	0.751728	0	1	right	green	1	0.284	high
409	7	5	0	self	1.5	1.513	green	0	right	right	GLO	left	close	1	intact	intact	July25_fps_avg_aud.mp4	0	0	0.600736	0	1	right	green	1	0.294	high
409	7	6	0	self	1.5	1.51005	blue	1	right	right	GLO	left	far	1	intact	intact	april_23_2015_fps_avg_aud.mp4	0	0	0.868663	0	1	up	blue	1	0.304	high
409	7	7	0	self	1.5	1.51147	red	0	down	down	GLO	left	far	1	intact	intact	5b8d6efa-e1ab-4dc5-b720-51d467e90859_fps_avg_aud.mp4	0	0	1.53414	0	1	down	red	1	0.314	high
409	7	8	0	self	1.5	1.51236	red	0	down	down	GLO	left	close	1	intact	intact	Apr13_fps_avg_aud.mp4	0	0	0.602616	0	1	down	red	1	0.324	high
409	7	9	0	self	1.5	1.51407	green	0	right	right	GLO	left	close	1	intact	intact	25a8b4d4-d5c7-4aab-af49-84ebba90c3be_fps_avg_aud.mp4	0	0	1.03384	0	1	right	green	1	0.334	high
409	7	10	0	self	1.5	1.50885	yellow	0	left	left	GLO	left	far	1	intact	intact	July23_fps_avg_aud.mp4	0	0	1.2836	0	1	left	yellow	1	0.344	high
409	7	11	0	self	1.5	1.51215	red	0	down	down	GLO	left	close	1	intact	intact	0fca764b-7147-4307-96dc-cc1807afd905_fps_avg_aud.mp4	0	0	1.33352	0	1	down	red	1	0.354	high
409	7	12	0	self	1.5	1.5085	green	1	left	left	GLO	right	far	1	intact	intact	Mar23_fps_avg_aud.mp4	0	0	1.01094	0	1	right	green	1	0.364	high
409	7	13	0	self	1.5	1.51249	yellow	1	up	up	GLO	right	far	1	intact	intact	63b4d034-af4a-4a03-8aa0-83818020367c_fps_avg_aud.mp4	0	0	1.43335	0	1	left	yellow	1	0.374	high
409	7	14	0	self	1.5	1.50935	yellow	1	right	right	GLO	left	far	1	intact	intact	cfde3402-3742-4dda-82a3-7c69c497e0f8_fps_avg_aud.mp4	0	0	0.593304	0	1	left	yellow	1	0.384	high
409	7	15	0	self	1.5	1.51052	red	1	right	right	GLO	left	close	1	intact	intact	cea732af-276b-4e98-ac0e-85adfd7a4545_fps_avg_aud.mp4	0	0	1.28435	0	1	down	red	1	0.394	high
409	7	16	0	self	1.5	1.51045	yellow	1	right	right	GLO	right	close	1	intact	intact	Oct7_fps_avg_aud.mp4	0	0	0.88477	0	1	left	yellow	1	0.404	high
409	7	17	0	self	1.5	1.50702	yellow	1	down	down	GLO	right	close	1	intact	intact	6189325b-e315-4417-8d81-a8cae54059df_fps_avg_aud.mp4	0	0	0.651821	0	1	left	yellow	1	0.414	high
409	7	18	0	self	1.5	1.51284	blue	0	up	up	GLO	right	close	1	intact	intact	bd6f74c6-a8d8-4bf6-bf1e-d008c6733318_fps_avg_aud.mp4	0	0	0.89806	0	1	up	blue	1	0.424	high
409	7	19	0	self	1.5	1.51175	red	0	down	down	GLO	right	close	1	intact	intact	Feb27_fps_avg_aud.mp4	0	0	0.717194	0	1	down	red	1	0.434	high
409	7	20	0	self	1.5	1.51288	blue	1	down	down	GLO	left	far	1	intact	intact	d59b9ee2-e1af-4171-a59e-9daefced695e_fps_avg_aud.mp4	0	0	1.1503	0	1	up	blue	1	0.444	high
409	7	21	0	self	1.5	1.51103	yellow	1	right	right	GLO	left	close	1	intact	intact	November_2015_(2)_fps_avg_aud.mp4	0	0	1.59249	0	1	left	yellow	1	0.454	high
409	7	22	0	self	1.5	1.51145	green	1	left	left	GLO	right	far	1	intact	intact	86e20a10-46be-4f52-b05b-06877412cf60_fps_avg_aud.mp4	0	0	0.668492	0	1	right	green	1	0.464	high
409	7	23	0	self	1.5	1.51031	green	0	right	right	GLO	right	close	1	intact	intact	Dec27_fps_avg_aud.mp4	0	0	0.700821	0	1	right	green	1	0.474	high
409	7	24	0	self	1.5	1.50998	green	1	left	left	GLO	left	far	1	intact	intact	e5ba6207-d3a1-4e68-9c36-3fbb5658f232_fps_avg_aud.mp4	0	0	0.701889	0	1	right	green	1	0.484	high
409	7	25	0	self	1.5	NaN	green	1	down	down	GLO	none	close	1	intact	intact	69d4f1be-9d50-4cd5-8475-2fb4a62d07e2_fps_avg_aud.mp4	0	0	NaN	NaN	NaN	none	none	NaN	0.484	high
409	7	26	0	self	1.5	NaN	yellow	0	left	left	GLO	none	close	1	intact	intact	July31_fps_avg_aud.mp4	0	0	NaN	NaN	NaN	none	none	NaN	0.484	high
409	7	27	0	self	1.5	NaN	red	1	left	left	GLO	none	close	1	intact	intact	cc1b0f3f-4b74-4315-bb6b-f6c5624cbee1(1)_fps_avg_aud.mp4	0	0	NaN	NaN	NaN	none	none	NaN	0.484	high
409	7	28	0	self	1.5	NaN	red	0	down	down	GLO	none	close	1	intact	intact	July_2015_(2)_fps_avg_aud.mp4	0	0	NaN	NaN	NaN	none	none	NaN	0.484	high
409	7	29	0	self	1.5	NaN	green	1	down	down	GLO	none	close	1	intact	intact	a286ef4d-f7bf-4cc1-b7c2-912b53e8ea4a_fps_avg_aud.mp4	0	0	NaN	NaN	NaN	none	none	NaN	0.484	high
409	7	30	0	self	1.5	NaN	red	1	right	right	GLO	none	close	1	intact	intact	58fa2b05-06d6-4325-b14b-27b0a9645ea5_fps_avg_aud.mp4	0	0	NaN	NaN	NaN	none	none	NaN	0.484	high
409	7	31	0	self	1.5	NaN	yellow	0	left	left	GLO	none	far	1	intact	intact	4d617426-ab8c-4125-9dcf-178529ca54a1_fps_avg_aud.mp4	0	0	NaN	NaN	NaN	none	none	NaN	0.484	high
409	7	32	0	self	1.5	NaN	yellow	0	left	left	GLO	none	close	1	intact	intact	August_3_2016_fps_avg_aud.mp4	0	0	NaN	NaN	NaN	none	none	NaN	0.484	high
409	7	33	0	self	1.5	NaN	red	0	down	down	GLO	none	far	1	intact	intact	Sep19_fps_avg_aud.mp4	0	0	NaN	NaN	NaN	none	none	NaN	0.484	high
409	7	34	0	self	1.5	NaN	blue	1	down	down	GLO	none	close	1	intact	intact	b1dabac3-204f-4571-b892-69eb87e805d0_fps_avg_aud.mp4	0	0	NaN	NaN	NaN	none	none	NaN	0.484	high
409	7	35	0	self	1.5	NaN	yellow	1	up	up	GLO	none	far	1	intact	intact	a66e9cf1-4573-4450-a822-0bcc91474968_fps_avg_aud.mp4	0	0	NaN	NaN	NaN	none	none	NaN	0.484	high
409	7	36	0	self	1.5	NaN	blue	0	up	up	GLO	none	far	1	intact	intact	Nov10_fps_avg_aud.mp4	0	0	NaN	NaN	NaN	none	none	NaN	0.484	high
409	7	37	0	self	1.5	NaN	green	0	right	right	GLO	none	far	1	intact	intact	226bfd42-14d0-45a1-82ba-233f4ddec70a_fps_avg_aud.mp4	0	0	NaN	NaN	NaN	none	none	NaN	0.484	high
409	8	1	0	auto	1.5	1.50945	green	0	right	right	GLO	right	far	1	intact	intact	a286ef4d-f7bf-4cc1-b7c2-912b53e8ea4a_fps_avg_aud.mp4	1	0	1.9267	0	1	right	green	1	0.485	low
409	8	2	0	auto	1.5	1.51584	green	0	right	right	GLO	left	far	1	intact	intact	4d681112-07b2-4265-a7e1-d188bc4f8511_fps_avg_aud.mp4	1	0	0.583092	0	1	right	green	1	0.486	low
409	8	3	0	auto	1.5	1.51143	red	0	down	down	GLO	left	far	1	intact	intact	October_4_2015_fps_avg_aud.mp4	1	0	1.01071	0	1	down	red	1	0.487	low
409	8	4	0	auto	1.5	1.51394	blue	0	up	up	GLO	left	close	1	intact	intact	591cd28e-3b15-449a-b19f-e2e7cabcd7ba_fps_avg_aud.mp4	1	0	0.862151	0	1	up	blue	1	0.488	low
409	8	5	0	auto	1.5	1.51327	yellow	1	up	up	GLO	left	close	1	intact	intact	d908683d-e7f6-43aa-ac1d-27222b281fc0_fps_avg_aud.mp4	1	0	0.943837	0	1	left	yellow	1	0.489	low
409	8	6	0	auto	1.5	1.50851	blue	0	up	up	GLO	right	close	1	intact	intact	Oct30_fps_avg_aud.mp4	1	0	1.28513	0	1	up	blue	1	0.49	low
409	8	7	0	auto	1.5	1.50833	red	1	up	up	GLO	left	far	1	intact	intact	Oct7_fps_avg_aud.mp4	1	0	1.15133	0	1	down	red	1	0.491	low
409	8	8	0	auto	1.5	1.50993	yellow	0	left	left	GLO	right	far	1	intact	intact	ac9d3ec9-e996-4c12-9cee-27057f644981_fps_avg_aud.mp4	1	2	1.43533	0.00733822	2	left	yellow	1	0.492	low
409	8	9	0	auto	1.5	1.50918	blue	0	up	up	GLO	left	far	1	intact	intact	November_2015_(2)_fps_avg_aud.mp4	1	0	0.89562	0	1	up	blue	1	0.493	low
409	8	10	0	auto	1.5	1.51311	blue	1	left	left	GLO	right	far	0	intact	none	none	0	0	0.834108	0	1	up	blue	1	0.494	low
409	8	11	0	auto	1.5	1.50898	blue	1	right	right	GLO	right	close	1	intact	intact	24d66d05-cb47-4803-b009-da6ae79affa7_fps_avg_aud.mp4	1	0	0.968019	0	1	up	blue	1	0.495	low
409	8	12	0	auto	1.5	1.51042	blue	1	left	left	GLO	left	close	1	intact	intact	149f1481-9792-4892-beba-4137601f26a6_fps_avg_aud.mp4	1	0	0.68323	0	1	up	blue	1	0.496	low
409	8	13	0	auto	1.5	1.50859	blue	1	left	left	GLO	right	close	0	intact	none	none	0	0	0.6529	0	1	up	blue	1	0.497	low
409	8	14	0	auto	1.5	1.50986	red	1	left	left	GLO	right	close	1	intact	intact	a3a57263-6857-435d-87b3-5c44ae53e10a_fps_avg_aud.mp4	1	17	1.02655	0.220006	2	down	red	1	0.498	low
409	8	15	0	auto	1.5	1.51389	blue	0	up	up	GLO	left	far	0	intact	none	none	0	0	1.65033	0	1	up	blue	1	0.499	low
409	8	16	0	auto	1.5	1.51633	blue	0	up	up	GLO	left	close	1	intact	intact	Jan27_fps_avg_aud.mp4	1	0	0.634308	0	1	up	blue	1	0.5	low
409	8	17	0	auto	1.5	1.51199	yellow	1	up	up	GLO	right	far	0	intact	none	none	0	0	0.833174	0	1	left	yellow	1	0.501	low
409	8	18	0	auto	1.5	1.51105	yellow	1	down	down	GLO	left	close	1	intact	intact	April_2015_fps_avg_aud.mp4	1	0	0.704052	0	1	left	yellow	1	0.502	low
409	8	19	0	auto	1.5	1.50985	green	0	right	right	GLO	right	far	0	intact	none	none	0	0	0.601581	0	1	right	green	1	0.503	low
409	8	20	0	auto	1.5	1.51138	yellow	0	left	left	GLO	left	close	0	intact	none	none	0	0	0.634332	0	1	left	yellow	1	0.504	low
409	8	21	0	auto	1.5	1.51121	blue	1	left	left	GLO	left	far	0	intact	none	none	0	0	0.818767	0	1	up	blue	1	0.505	low
409	8	22	0	auto	1.5	1.51299	red	1	up	up	GLO	left	close	1	intact	intact	79665cdb-61c8-40fb-9ffc-0682e57caf2f_fps_avg_aud.mp4	1	9	0.753881	0.101548	1	down	red	1	0.506	low
409	8	23	0	auto	1.5	1.50858	red	1	right	right	GLO	right	close	1	intact	intact	18d4ec1c-7f36-4828-8594-27b6bfd3c309_fps_avg_aud.mp4	1	0	0.933332	0	1	up	blue	0	0.505	low
409	8	24	0	auto	1.5	1.50978	blue	1	left	left	GLO	left	close	1	intact	intact	58fa2b05-06d6-4325-b14b-27b0a9645ea5_fps_avg_aud.mp4	1	0	0.879908	0	1	up	blue	1	0.506	low
409	8	25	0	auto	1.5	NaN	red	0	down	down	GLO	none	close	0	intact	none	none	0	0	NaN	NaN	NaN	none	none	NaN	0.506	low
409	8	26	0	auto	1.5	NaN	yellow	1	down	down	GLO	none	far	0	intact	none	none	0	0	NaN	NaN	NaN	none	none	NaN	0.506	low
409	8	27	0	auto	1.5	NaN	red	0	down	down	GLO	none	close	1	intact	intact	June7_fps_avg_aud.mp4	0	0	NaN	NaN	NaN	none	none	NaN	0.506	low
409	8	28	0	auto	1.5	NaN	blue	0	up	up	GLO	none	close	1	intact	intact	520ef496-2bf3-4f3e-8a54-00e0428b126c_fps_avg_aud.mp4	0	0	NaN	NaN	NaN	none	none	NaN	0.506	low
409	8	29	0	auto	1.5	NaN	yellow	1	up	up	GLO	none	far	0	intact	none	none	0	0	NaN	NaN	NaN	none	none	NaN	0.506	low
409	8	30	0	auto	1.5	NaN	green	0	right	right	GLO	none	close	1	intact	intact	cc0b25a9-3d1b-4c67-b1c5-5f27d60e59cb_fps_avg_aud.mp4	0	0	NaN	NaN	NaN	none	none	NaN	0.506	low
409	8	31	0	auto	1.5	NaN	red	0	down	down	GLO	none	close	1	intact	intact	1affd9f8-27af-4e8b-9985-5f3abbee6931_fps_avg_aud.mp4	0	0	NaN	NaN	NaN	none	none	NaN	0.506	low
409	8	32	0	auto	1.5	NaN	red	1	left	left	GLO	none	close	1	intact	intact	april_23_2015_fps_avg_aud.mp4	0	0	NaN	NaN	NaN	none	none	NaN	0.506	low
409	8	33	0	auto	1.5	NaN	blue	1	right	right	GLO	none	close	1	intact	intact	108f257a-1892-40f5-b9e3-6eb0557bc08c(1)_fps_avg_aud.mp4	0	0	NaN	NaN	NaN	none	none	NaN	0.506	low
409	8	34	0	auto	1.5	NaN	red	1	up	up	GLO	none	far	0	intact	none	none	0	0	NaN	NaN	NaN	none	none	NaN	0.506	low
409	8	35	0	auto	1.5	NaN	green	1	down	down	GLO	none	far	0	intact	none	none	0	0	NaN	NaN	NaN	none	none	NaN	0.506	low
409	8	36	0	auto	1.5	NaN	yellow	0	left	left	GLO	none	close	1	intact	intact	b2f11719-a2c9-405c-93a2-abd13a835201_fps_avg_aud.mp4	0	0	NaN	NaN	NaN	none	none	NaN	0.506	low
409	8	37	0	auto	1.5	NaN	blue	0	up	up	GLO	none	far	1	intact	intact	Jun8_fps_avg_aud.mp4	0	0	NaN	NaN	NaN	none	none	NaN	0.506	low
409	9	1	0	self	1.5	1.51692	green	0	right	right	GLO	left	close	1	intact	intact	a525e336-0ec0-4048-92cf-487e44952f5c_fps_avg_aud.mp4	0	0	1.52652	0	1	right	green	1	0.516	high
409	9	2	0	self	1.5	1.51371	yellow	1	up	up	GLO	right	close	1	intact	intact	Jun19_fps_avg_aud.mp4	0	0	0.617429	0	1	left	yellow	1	0.526	high
409	9	3	0	self	1.5	1.5122	green	0	right	right	GLO	left	close	1	intact	intact	bbadcc83-10bb-4a2d-a28a-1d6b44f33770_fps_avg_aud.mp4	0	0	0.81278	0	1	left	yellow	0	0.516	high
409	9	4	0	self	1.5	1.51294	green	0	right	right	GLO	right	far	1	intact	intact	Feb28_fps_avg_aud.mp4	0	0	0.729803	0	1	right	green	1	0.526	high
409	9	5	0	self	1.5	1.50988	green	1	up	up	GLO	left	far	1	intact	intact	17bc9968-edac-4234-b3eb-c8487676c442_fps_avg_aud.mp4	0	0	0.768137	0	1	right	green	1	0.536	high
409	9	6	0	self	1.5	1.51038	red	1	up	up	GLO	left	far	1	intact	intact	0676fced-76c5-4cb7-bd2b-7d257e147aad_fps_avg_aud.mp4	0	0	1.61769	0	1	down	red	1	0.546	high
409	9	7	0	self	1.5	1.51047	yellow	0	left	left	GLO	left	close	1	intact	intact	5b49bfdf-720d-437c-bb4f-da8fd9a14bdf_fps_avg_aud.mp4	0	0	0.635398	0	1	left	yellow	1	0.556	high
409	9	8	0	self	1.5	1.51068	yellow	1	down	down	GLO	right	close	1	intact	intact	may_28_2015_fps_avg_aud.mp4	0	0	1.03496	0	1	left	yellow	1	0.566	high
409	9	9	0	self	1.5	1.51121	yellow	0	left	left	GLO	right	far	1	intact	intact	e9f06abd-24bb-46d2-ac8b-3a473a758d7e_fps_avg_aud.mp4	0	0	0.569156	0	1	left	yellow	1	0.576	high
409	9	10	0	self	1.5	1.5112	blue	0	up	up	GLO	right	far	1	intact	intact	5f534c39-dfe8-4a8d-a678-c406bcf9154d_fps_avg_aud.mp4	0	0	0.876728	0	1	up	blue	1	0.586	high
409	9	11	0	self	1.5	1.51185	red	0	down	down	GLO	left	far	1	intact	intact	march_21_2016_fps_avg_aud.mp4	0	0	0.817827	0	1	down	red	1	0.596	high
409	9	12	0	self	1.5	1.50919	yellow	0	left	left	GLO	right	close	1	intact	intact	9df4c83d-45cc-4501-be4d-279a04192ba4_fps_avg_aud.mp4	0	0	0.519008	0	1	left	yellow	1	0.606	high
409	9	13	0	self	1.5	1.51173	yellow	0	left	left	GLO	left	close	1	intact	intact	ec93e301-9c09-4bba-94b5-edac54ba0e07_fps_avg_aud.mp4	0	0	0.502787	0	1	left	yellow	1	0.616	high
409	9	14	0	self	1.5	1.51101	green	1	down	down	GLO	left	close	1	intact	intact	33a33f4c-72c6-457d-828e-a576d3e3a8e3_fps_avg_aud.mp4	0	0	0.65183	0	1	right	green	1	0.626	high
409	9	15	0	self	1.5	1.51224	blue	1	right	right	GLO	right	close	1	intact	intact	March25_2016_fps_avg_aud.mp4	0	0	1.08724	0	1	up	blue	1	0.636	high
409	9	16	0	self	1.5	1.51429	blue	1	down	down	GLO	left	close	1	intact	intact	5b4edd74-dc10-4920-b508-c0b2f21238c3_fps_avg_aud.mp4	0	0	0.832661	0	1	up	blue	1	0.646	high
409	9	17	0	self	1.5	1.51014	blue	0	up	up	GLO	right	close	1	intact	intact	05c4b895-8d51-48d4-93fd-4e37519019a0_fps_avg_aud.mp4	0	0	0.584304	0	1	up	blue	1	0.656	high
409	9	18	0	self	1.5	1.51218	blue	1	left	left	GLO	left	close	1	intact	intact	Dec27_fps_avg_aud.mp4	0	0	0.768141	0	1	up	blue	1	0.666	high
409	9	19	0	self	1.5	1.51222	yellow	1	right	right	GLO	left	close	1	intact	intact	647890e0-5689-43cf-86ab-b37e61076130_fps_avg_aud.mp4	0	0	2.67011	0	1	left	yellow	1	0.676	high
409	9	20	0	self	1.5	1.50946	green	1	down	down	GLO	right	far	1	intact	intact	May11_fps_avg_aud.mp4	0	0	0.584723	0	1	right	green	1	0.686	high
409	9	21	0	self	1.5	1.50972	red	1	right	right	GLO	right	far	1	intact	intact	Mar30_fps_avg_aud.mp4	0	0	0.769444	0	1	down	red	1	0.696	high
409	9	22	0	self	1.5	1.51113	red	0	down	down	GLO	left	close	1	intact	intact	637444dd-82ca-432a-beab-7eb721de8b71_fps_avg_aud.mp4	0	0	0.602183	0	1	down	red	1	0.706	high
409	9	23	0	self	1.5	1.51066	red	1	up	up	GLO	right	close	1	intact	intact	a36f5f1c-60eb-41c0-8ed1-09a4e01342bc_fps_avg_aud.mp4	0	0	1.03545	0	1	down	red	1	0.716	high
409	9	24	0	self	1.5	1.51205	blue	0	up	up	GLO	right	far	1	intact	intact	November_14_2016_fps_avg_aud.mp4	0	0	0.634568	0	1	up	blue	1	0.726	high
409	9	25	0	self	1.5	1.51149	blue	0	up	up	GLO	left	close	1	intact	intact	may_25_2015_fps_avg_aud.mp4	0	0	0.479388	0	1	up	blue	1	0.736	high
409	9	26	0	self	1.5	NaN	blue	0	up	up	GLO	none	far	1	intact	intact	639855c9-f7b0-4d31-8ca6-c12b36f03058_fps_avg_aud.mp4	0	0	NaN	NaN	NaN	none	none	NaN	0.736	high
409	9	27	0	self	1.5	NaN	green	1	down	down	GLO	none	far	1	intact	intact	c3c668bd-3353-4887-b3ff-6d0225f5629c_fps_avg_aud.mp4	0	0	NaN	NaN	NaN	none	none	NaN	0.736	high
409	9	28	0	self	1.5	NaN	blue	0	up	up	GLO	none	close	1	intact	intact	eec24f3a-496f-4cb7-8f48-5bf5530f3e96_fps_avg_aud.mp4	0	0	NaN	NaN	NaN	none	none	NaN	0.736	high
409	9	29	0	self	1.5	NaN	red	0	down	down	GLO	none	far	1	intact	intact	94b03dc1-7d37-4553-b382-cb9494e3b7f1_fps_avg_aud.mp4	0	0	NaN	NaN	NaN	none	none	NaN	0.736	high
409	9	30	0	self	1.5	NaN	red	1	up	up	GLO	none	close	1	intact	intact	06fe833b-37ac-4f46-b915-fda1c2b107fe_fps_avg_aud.mp4	0	0	NaN	NaN	NaN	none	none	NaN	0.736	high
409	9	31	0	self	1.5	NaN	yellow	0	left	left	GLO	none	close	1	intact	intact	eccee75e-3f7b-45d7-b4a7-10ac4fce267e_fps_avg_aud.mp4	0	0	NaN	NaN	NaN	none	none	NaN	0.736	high
409	9	32	0	self	1.5	NaN	green	1	up	up	GLO	none	close	1	intact	intact	Jun6_fps_avg_aud.mp4	0	0	NaN	NaN	NaN	none	none	NaN	0.736	high
409	9	33	0	self	1.5	NaN	green	0	right	right	GLO	none	far	1	intact	intact	October_8_2016_fps_avg_aud.mp4	0	0	NaN	NaN	NaN	none	none	NaN	0.736	high
409	9	34	0	self	1.5	NaN	blue	1	down	down	GLO	none	far	1	intact	intact	July3_fps_avg_aud.mp4	0	0	NaN	NaN	NaN	none	none	NaN	0.736	high
409	9	35	0	self	1.5	NaN	blue	1	down	down	GLO	none	close	1	intact	intact	745865b0-d7b3-440f-840d-03f3a3ef51b1_fps_avg_aud.mp4	0	0	NaN	NaN	NaN	none	none	NaN	0.736	high
409	9	36	0	self	1.5	NaN	yellow	1	down	down	GLO	none	far	1	intact	intact	b442d744-edd6-478c-94f1-be50e05465cc_fps_avg_aud.mp4	0	0	NaN	NaN	NaN	none	none	NaN	0.736	high
409	9	37	0	self	1.5	NaN	yellow	0	left	left	GLO	none	close	1	intact	intact	592c03b4-010b-4f30-8521-fbf254e827b0_fps_avg_aud.mp4	0	0	NaN	NaN	NaN	none	none	NaN	0.736	high
409	10	1	0	self	1.5	1.51651	red	0	down	down	GLO	left	far	1	intact	intact	e8c6c3f9-933c-4d98-9013-684e2acc2e1e_fps_avg_aud.mp4	0	0	1.001	0	1	down	red	1	0.737	low
409	10	2	0	self	1.5	1.51038	blue	0	up	up	GLO	left	far	1	intact	intact	Nov1_fps_avg_aud.mp4	0	0	0.817855	0	1	up	blue	1	0.738	low
409	10	3	0	self	1.5	1.51183	yellow	1	right	right	GLO	left	close	1	intact	intact	b1dabac3-204f-4571-b892-69eb87e805d0_fps_avg_aud.mp4	0	0	1.05298	0	1	left	yellow	1	0.739	low
409	10	4	0	self	1.5	1.51293	green	1	up	up	GLO	right	close	1	intact	intact	Mar21_fps_avg_aud.mp4	0	0	0.619803	0	1	right	green	1	0.74	low
409	10	5	0	self	1.5	1.51	blue	0	up	up	GLO	left	close	1	intact	intact	b70b2fc0-8728-4c47-a0fd-a887a904f1ee_fps_avg_aud.mp4	0	0	0.701357	0	1	up	blue	1	0.741	low
409	10	6	0	self	1.5	1.50939	green	1	up	up	GLO	left	far	1	intact	intact	ea8c6916-8b70-4539-be72-29487b43dc07_fps_avg_aud.mp4	0	0	0.802327	0	1	right	green	1	0.742	low
409	10	7	0	self	1.5	1.51136	yellow	0	left	left	GLO	left	far	1	intact	intact	1affd9f8-27af-4e8b-9985-5f3abbee6931_fps_avg_aud.mp4	0	0	0.468437	0	1	left	yellow	1	0.743	low
409	10	8	0	self	1.5	1.51136	red	1	right	right	GLO	left	far	1	intact	intact	e1d4becd-1ca6-41b0-82ab-58d50a368204_fps_avg_aud.mp4	0	0	0.769919	0	1	down	red	1	0.744	low
409	10	9	0	self	1.5	1.51102	yellow	1	up	up	GLO	left	far	1	intact	intact	334b06e5-5a99-4c23-b82f-0b02017f9d2e_fps_avg_aud.mp4	0	0	0.944481	0	1	left	yellow	1	0.745	low
409	10	10	0	self	1.5	1.51074	green	1	down	down	GLO	left	far	1	intact	intact	17cb4c50-a413-43aa-8ef1-30df975b04f4_fps_avg_aud.mp4	0	0	1.06817	0	1	right	green	1	0.746	low
409	10	11	0	self	1.5	1.51276	yellow	1	right	right	GLO	left	far	1	intact	intact	Jan13_fps_avg_aud.mp4	0	0	1.38393	0	1	left	yellow	1	0.747	low
409	10	12	0	self	1.5	1.51061	red	1	up	up	GLO	right	far	1	intact	intact	7720ddf1-f518-43df-bdba-7009c0432e63_fps_avg_aud.mp4	0	0	1.85135	0	1	down	red	1	0.748	low
409	10	13	0	self	1.5	1.51208	green	1	up	up	GLO	left	far	1	intact	intact	69d4f1be-9d50-4cd5-8475-2fb4a62d07e2_fps_avg_aud.mp4	0	0	0.710035	0	1	up	blue	0	0.747	low
409	10	14	0	self	1.5	1.51059	red	0	down	down	GLO	right	close	1	intact	intact	b35409aa-6325-4736-bc0d-526af5b26b83_fps_avg_aud.mp4	0	0	1.63622	0	1	down	red	1	0.748	low
409	10	15	0	self	1.5	1.51106	green	0	right	right	GLO	left	close	1	intact	intact	705c0056-c7dd-4090-a27e-8956e33cb4b0_fps_avg_aud.mp4	0	0	0.934344	0	1	right	green	1	0.749	low
409	10	16	0	self	1.5	1.51154	green	1	left	left	GLO	right	close	1	intact	intact	e6c6cdbe-2a63-4eeb-b544-6fc0a25dc157_fps_avg_aud.mp4	0	0	0.752182	0	1	right	green	1	0.75	low
409	10	17	0	self	1.5	1.51116	yellow	1	down	down	GLO	right	far	1	intact	intact	Dec1_fps_avg_aud.mp4	0	0	0.585521	0	1	left	yellow	1	0.751	low
409	10	18	0	self	1.5	1.51252	green	0	right	right	GLO	right	far	1	intact	intact	5e28083f-f416-4168-bfde-2e1ddfaaf60e_fps_avg_aud.mp4	0	0	0.694141	0	1	right	green	1	0.752	low
409	10	19	0	self	1.5	1.51036	green	1	up	up	GLO	right	close	1	intact	intact	9e99d645-5200-4298-9c0f-4a18ab570a6d_fps_avg_aud.mp4	0	0	0.768291	0	1	right	green	1	0.753	low
409	10	20	0	self	1.5	1.51003	red	1	up	up	GLO	right	far	1	intact	intact	33d05c43-ee7c-4877-9419-344c4009c91e_fps_avg_aud.mp4	0	0	0.76765	0	1	down	red	1	0.754	low
409	10	21	0	self	1.5	1.50961	green	1	down	down	GLO	left	far	1	intact	intact	648cf5a2-5dc9-46b3-bf61-9e51533fa6ad_fps_avg_aud.mp4	0	0	0.817545	0	1	right	green	1	0.755	low
409	10	22	0	self	1.5	1.51047	green	1	up	up	GLO	left	far	1	intact	intact	July23_fps_avg_aud.mp4	0	0	0.552886	0	1	right	green	1	0.756	low
409	10	23	0	self	1.5	1.51153	yellow	1	up	up	GLO	right	close	1	intact	intact	Jnauary_2016_fps_avg_aud.mp4	0	0	0.617911	0	1	left	yellow	1	0.757	low
409	10	24	0	self	1.5	1.5108	blue	0	up	up	GLO	left	close	1	intact	intact	Mar20_fps_avg_aud.mp4	0	0	0.902412	0	1	up	blue	1	0.758	low
409	10	25	0	self	1.5	1.51198	blue	1	right	right	GLO	right	close	1	intact	intact	c4382136-d60d-4fd0-872b-23cb9269b725_fps_avg_aud.mp4	0	0	0.651428	0	1	up	blue	1	0.759	low
409	10	26	0	self	1.5	NaN	blue	0	up	up	GLO	none	far	1	intact	intact	31c3bae2-faf4-4718-b53b-2e88624b3fa5_fps_avg_aud.mp4	0	0	NaN	NaN	NaN	none	none	NaN	0.759	low
409	10	27	0	self	1.5	NaN	red	1	right	right	GLO	none	far	1	intact	intact	240bdf76-9a30-49ea-9534-079281412955_fps_avg_aud.mp4	0	0	NaN	NaN	NaN	none	none	NaN	0.759	low
409	10	28	0	self	1.5	NaN	green	0	right	right	GLO	none	far	1	intact	intact	may_28_2015_fps_avg_aud.mp4	0	0	NaN	NaN	NaN	none	none	NaN	0.759	low
409	10	29	0	self	1.5	NaN	green	1	up	up	GLO	none	far	1	intact	intact	Jan19_fps_avg_aud.mp4	0	0	NaN	NaN	NaN	none	none	NaN	0.759	low
409	10	30	0	self	1.5	NaN	red	1	up	up	GLO	none	close	1	intact	intact	342c3db7-0e7e-4cf9-b04c-0d7bba48d8bb_fps_avg_aud.mp4	0	0	NaN	NaN	NaN	none	none	NaN	0.759	low
409	10	31	0	self	1.5	NaN	red	1	right	right	GLO	none	close	1	intact	intact	Sep19_fps_avg_aud.mp4	0	0	NaN	NaN	NaN	none	none	NaN	0.759	low
409	10	32	0	self	1.5	NaN	red	1	right	right	GLO	none	close	1	intact	intact	eec24f3a-496f-4cb7-8f48-5bf5530f3e96_fps_avg_aud.mp4	0	0	NaN	NaN	NaN	none	none	NaN	0.759	low
409	10	33	0	self	1.5	NaN	blue	0	up	up	GLO	none	close	1	intact	intact	Aug11_fps_avg_aud.mp4	0	0	NaN	NaN	NaN	none	none	NaN	0.759	low
409	10	34	0	self	1.5	NaN	green	0	right	right	GLO	none	far	1	intact	intact	Apr15_fps_avg_aud.mp4	0	0	NaN	NaN	NaN	none	none	NaN	0.759	low
409	10	35	0	self	1.5	NaN	blue	0	up	up	GLO	none	far	1	intact	intact	January_2016_(1)_fps_avg_aud.mp4	0	0	NaN	NaN	NaN	none	none	NaN	0.759	low
409	10	36	0	self	1.5	NaN	red	0	down	down	GLO	none	close	1	intact	intact	ede4a096-21dc-4ed4-9b28-6df0a7f6fe6b_fps_avg_aud.mp4	0	0	NaN	NaN	NaN	none	none	NaN	0.759	low
409	10	37	0	self	1.5	NaN	red	0	down	down	GLO	none	far	1	intact	intact	f7063dab-b99f-4ced-99a1-d8e067de3ccd_fps_avg_aud.mp4	0	0	NaN	NaN	NaN	none	none	NaN	0.759	low
409	11	1	0	auto	1.5	1.5156	red	1	up	up	GLO	left	close	1	intact	intact	1bfb8d40-5675-4acc-87b4-a7f11b6242ea_fps_avg_aud.mp4	1	0	2.76505	0	1	down	red	1	0.769	high
409	11	2	0	auto	1.5	1.5078	blue	1	down	down	GLO	right	far	0	intact	none	none	0	0	0.768796	0	1	up	blue	1	0.779	high
409	11	3	0	auto	1.5	1.51131	green	0	right	right	GLO	right	far	1	intact	intact	210cd477-4b9d-42a8-810f-6df0d7615942_fps_avg_aud.mp4	1	0	0.942456	0	1	right	green	1	0.789	high
409	11	4	0	auto	1.5	1.50809	green	0	right	right	GLO	right	close	1	intact	intact	4846a2fb-abed-444f-9d11-1cd53c563089_fps_avg_aud.mp4	1	0	0.615156	0	1	right	green	1	0.799	high
409	11	5	0	auto	1.5	1.50778	yellow	1	up	up	GLO	right	close	1	intact	intact	049f3843-4d05-4200-8b41-7c0b71c68f4c_fps_avg_aud.mp4	1	17	0.619242	0.208796	2	left	yellow	1	0.809	high
409	11	6	0	auto	1.5	1.51011	green	1	left	left	GLO	right	far	0	intact	none	none	0	0	1.99846	0	1	left	yellow	0	0.799	high
409	11	7	0	auto	1.5	1.51242	yellow	0	left	left	GLO	right	far	1	intact	intact	Jan20_fps_avg_aud.mp4	1	1	0.717738	4.4215e-05	1	left	yellow	1	0.809	high
409	11	8	0	auto	1.5	1.50865	blue	1	right	right	GLO	right	close	1	intact	intact	Otober_11_2016_fps_avg_aud.mp4	1	0	1.4974	0	1	up	blue	1	0.819	high
409	11	9	0	auto	1.5	1.50978	yellow	0	left	left	GLO	right	far	0	intact	none	none	0	0	1.23545	0	1	left	yellow	1	0.829	high
409	11	10	0	auto	1.5	1.51018	green	1	down	down	GLO	left	close	0	intact	none	none	0	0	0.983982	0	1	right	green	1	0.839	high
409	11	11	0	auto	1.5	1.51175	blue	0	up	up	GLO	right	far	1	intact	intact	Nmarch122015_fps_avg_aud.mp4	1	0	0.810989	0	1	up	blue	1	0.849	high
409	11	12	0	auto	1.5	1.50848	green	0	right	right	GLO	right	far	1	intact	intact	a9843691-e4cb-4c12-aa70-47f2024c5698_fps_avg_aud.mp4	1	0	1.01808	0	1	right	green	1	0.859	high
409	11	13	0	auto	1.5	1.50923	blue	0	up	up	GLO	left	close	1	intact	intact	Mar14_fps_avg_aud.mp4	1	15	1.25365	0.211867	2	up	blue	1	0.869	high
409	11	14	0	auto	1.5	1.50807	green	0	right	right	GLO	right	close	1	intact	intact	14b4b9c3-9408-4ec8-bd84-8e92a4405645_fps_avg_aud.mp4	1	0	1.25086	0	1	right	green	1	0.879	high
409	11	15	0	auto	1.5	1.50956	yellow	1	right	right	GLO	right	far	0	intact	none	none	0	0	0.702414	0	1	left	yellow	1	0.889	high
409	11	16	0	auto	1.5	1.50992	red	0	down	down	GLO	right	close	1	intact	intact	8a8f2893-dc1c-441b-8b88-03672ad98bf9_fps_avg_aud.mp4	1	0	1.19295	0	1	down	red	1	0.899	high
409	11	17	0	auto	1.5	1.51474	red	0	down	down	GLO	left	far	1	intact	intact	bfb38b58-a56a-427a-a233-3b6663beed7c_fps_avg_aud.mp4	1	0	0.784533	0	1	down	red	1	0.909	high
409	11	18	0	auto	1.5	1.50905	yellow	0	left	left	GLO	left	far	1	intact	intact	July_2015_(1)_fps_avg_aud.mp4	1	0	1.12218	0	1	left	yellow	1	0.919	high
409	11	19	0	auto	1.5	1.51733	yellow	1	right	right	GLO	right	close	1	intact	intact	b5bcd3a2-267e-4413-b730-c3121b8457ab_fps_avg_aud.mp4	1	0	0.650957	0	1	left	yellow	1	0.929	high
409	11	20	0	auto	1.5	1.5098	green	1	up	up	GLO	left	far	1	intact	intact	jun14_fps_avg_aud.mp4	1	0	2.01668	0	1	right	green	1	0.939	high
409	11	21	0	auto	1.5	1.51042	blue	0	up	up	GLO	right	close	0	intact	none	none	0	0	1.48444	0	1	up	blue	1	0.949	high
409	11	22	0	auto	1.5	1.51007	green	1	up	up	GLO	right	close	0	intact	none	none	0	0	1.15215	0	1	right	green	1	0.959	high
409	11	23	0	auto	1.5	NaN	red	1	right	right	GLO	none	far	0	intact	none	none	0	0	NaN	NaN	NaN	none	none	NaN	0.959	high
409	11	24	0	auto	1.5	NaN	red	0	down	down	GLO	none	close	0	intact	none	none	0	0	NaN	NaN	NaN	none	none	NaN	0.959	high
409	11	25	0	auto	1.5	NaN	red	0	down	down	GLO	none	close	1	intact	intact	bd6f74c6-a8d8-4bf6-bf1e-d008c6733318_fps_avg_aud.mp4	0	0	NaN	NaN	NaN	none	none	NaN	0.959	high
409	11	26	0	auto	1.5	NaN	yellow	0	left	left	GLO	none	far	1	intact	intact	Aug18_fps_avg_aud.mp4	0	0	NaN	NaN	NaN	none	none	NaN	0.959	high
409	11	27	0	auto	1.5	NaN	green	1	left	left	GLO	none	far	0	intact	none	none	0	0	NaN	NaN	NaN	none	none	NaN	0.959	high
409	11	28	0	auto	1.5	NaN	red	1	left	left	GLO	none	far	1	intact	intact	August_2,_2015_fps_avg_aud.mp4	0	0	NaN	NaN	NaN	none	none	NaN	0.959	high
