ID	Block	Trials	Practice	VideoStart	ITI	ITI_measured	Color	Conflict	Global	Local	Task	Video_pos	Video_dist	Video_present	Video_cat_cond	Video_cat	Video	VideoPlayed	VideoCheck	RT	DT	Visits	KeyPress	KeyColor	Correct	Reward	RewardCond
410	1	1	1	none	0.5	0.798436	red	0	down	down	GLO	left	far	0	intact	none	none	0	0	1.57202	0	1	down	red	1	0	0
410	1	2	1	none	0.5	0.514685	red	1	left	left	GLO	right	close	0	intact	none	none	0	0	0.976325	0	1	down	red	1	0	0
410	1	3	1	none	0.5	0.514475	blue	0	up	up	GLO	left	far	0	intact	none	none	0	0	1.03667	0	1	up	blue	1	0	0
410	1	4	1	none	0.5	0.514968	red	0	down	down	GLO	left	close	0	intact	none	none	0	0	0.522926	0	1	down	red	1	0	0
410	1	5	1	none	0.5	0.517023	red	0	down	down	GLO	right	far	0	intact	none	none	0	0	0.804737	0	1	down	red	1	0	0
410	1	6	1	none	0.5	0.511265	yellow	1	down	down	GLO	right	close	0	intact	none	none	0	0	0.907749	0	1	left	yellow	1	0	0
410	1	7	1	none	0.5	0.514495	yellow	1	down	down	GLO	right	close	0	intact	none	none	0	0	0.497622	0	1	left	yellow	1	0	0
410	1	8	1	none	0.5	0.515196	green	0	right	right	GLO	left	close	0	intact	none	none	0	0	0.670464	0	1	right	green	1	0	0
410	1	9	1	none	0.5	0.514986	blue	0	up	up	GLO	right	close	0	intact	none	none	0	0	1.74555	0	1	up	blue	1	0	0
410	1	10	1	none	0.5	0.513216	yellow	0	left	left	GLO	right	far	0	intact	none	none	0	0	1.00427	0	1	left	yellow	1	0	0
410	1	11	1	none	0.5	0.513916	yellow	0	left	left	GLO	left	far	0	intact	none	none	0	0	0.595634	0	1	left	yellow	1	0	0
410	1	12	1	none	0.5	0.513648	blue	1	left	left	GLO	left	far	0	intact	none	none	0	0	1.9816	0	1	up	blue	1	0	0
410	1	13	1	none	0.5	0.514923	red	1	up	up	GLO	right	far	0	intact	none	none	0	0	0.786218	0	1	down	red	1	0	0
410	1	14	1	none	0.5	0.515536	yellow	1	down	down	GLO	right	far	0	intact	none	none	0	0	0.784655	0	1	left	yellow	1	0	0
410	1	15	1	none	0.5	0.512519	yellow	1	down	down	GLO	left	close	0	intact	none	none	0	0	0.632514	0	1	left	yellow	1	0	0
410	1	16	1	none	0.5	0.513435	blue	1	down	down	GLO	left	close	0	intact	none	none	0	0	1.21492	0	1	up	blue	1	0	0
410	1	17	1	none	0.5	0.513263	yellow	1	right	right	GLO	left	far	0	intact	none	none	0	0	0.813997	0	1	left	yellow	1	0	0
410	1	18	1	none	0.5	0.512695	yellow	1	down	down	GLO	right	close	0	intact	none	none	0	0	0.693837	0	1	left	yellow	1	0	0
410	1	19	1	none	0.5	0.512421	blue	0	up	up	GLO	right	close	0	intact	none	none	0	0	0.794393	0	1	up	blue	1	0	0
410	1	20	1	none	0.5	0.51403	green	0	right	right	GLO	left	far	0	intact	none	none	0	0	0.763978	0	1	right	green	1	0	0
410	1	21	1	none	0.5	0.516069	green	1	up	up	GLO	left	close	0	intact	none	none	0	0	0.844618	0	1	right	green	1	0	0
410	1	22	1	none	0.5	0.513027	yellow	0	left	left	GLO	right	far	0	intact	none	none	0	0	0.736481	0	1	left	yellow	1	0	0
410	1	23	1	none	0.5	0.514113	blue	0	up	up	GLO	left	close	0	intact	none	none	0	0	1.9984	0	1	up	blue	1	0	0
410	1	24	1	none	0.5	0.514972	red	0	down	down	GLO	left	far	0	intact	none	none	0	0	0.615167	0	1	down	red	1	0	0
410	1	25	1	none	0.5	0.514265	yellow	1	down	down	GLO	right	close	0	intact	none	none	0	0	0.657616	0	1	left	yellow	1	0	0
410	1	26	1	none	0.5	0.513429	yellow	1	down	down	GLO	left	close	0	intact	none	none	0	0	0.666419	0	1	left	yellow	1	0	0
410	1	27	1	none	0.5	0.513393	red	1	right	right	GLO	right	far	0	intact	none	none	0	0	2.81453	0	1	down	red	1	0	0
410	1	28	1	none	0.5	0.51092	blue	0	up	up	GLO	left	close	0	intact	none	none	0	0	0.950395	0	1	left	yellow	0	0	0
410	1	29	1	none	0.5	0.512828	green	0	right	right	GLO	left	close	0	intact	none	none	0	0	1.21372	0	1	right	green	1	0	0
410	1	30	1	none	0.5	0.514452	blue	0	up	up	GLO	right	far	0	intact	none	none	0	0	0.847636	0	1	up	blue	1	0	0
410	1	31	1	none	0.5	0.515991	green	1	up	up	GLO	left	far	0	intact	none	none	0	0	0.915564	0	1	right	green	1	0	0
410	1	32	1	none	0.5	0.513535	red	0	down	down	GLO	right	far	0	intact	none	none	0	0	0.864246	0	1	down	red	1	0	0
410	1	33	1	none	0.5	0.512755	green	1	left	left	GLO	right	close	0	intact	none	none	0	0	0.758126	0	1	right	green	1	0	0
410	1	34	1	none	0.5	0.513247	yellow	1	up	up	GLO	right	close	0	intact	none	none	0	0	1.25629	0	1	left	yellow	1	0	0
410	1	35	1	none	0.5	0.515935	blue	0	up	up	GLO	right	close	0	intact	none	none	0	0	1.16412	0	1	up	blue	1	0	0
410	1	36	1	none	0.5	0.514516	blue	1	left	left	GLO	left	close	0	intact	none	none	0	0	0.905929	0	1	up	blue	1	0	0
410	1	37	1	none	0.5	0.513718	green	0	right	right	GLO	right	close	0	intact	none	none	0	0	1.06467	0	1	right	green	1	0	0
410	1	38	1	none	0.5	0.516563	blue	1	left	left	GLO	right	far	0	intact	none	none	0	0	0.898657	0	1	up	blue	1	0	0
410	1	39	1	none	0.5	0.514016	red	0	down	down	GLO	right	far	0	intact	none	none	0	0	0.690953	0	1	down	red	1	0	0
410	1	40	1	none	0.5	0.513125	red	0	down	down	GLO	left	close	0	intact	none	none	0	0	0.536923	0	1	down	red	1	0	0
410	1	41	1	none	0.5	0.515347	green	0	right	right	GLO	right	far	0	intact	none	none	0	0	0.630772	0	1	right	green	1	0	0
410	1	42	1	none	0.5	0.51387	green	0	right	right	GLO	right	far	0	intact	none	none	0	0	0.51568	0	1	right	green	1	0	0
410	1	43	1	none	0.5	0.514646	red	1	right	right	GLO	left	far	0	intact	none	none	0	0	1.02292	0	1	down	red	1	0	0
410	1	44	1	none	0.5	0.513967	red	0	down	down	GLO	right	close	0	intact	none	none	0	0	0.513749	0	1	down	red	1	0	0
410	1	45	1	none	0.5	0.512612	yellow	1	down	down	GLO	left	close	0	intact	none	none	0	0	0.798693	0	1	left	yellow	1	0	0
410	1	46	1	none	0.5	0.513796	green	1	left	left	GLO	right	far	0	intact	none	none	0	0	0.612966	0	1	right	green	1	0	0
410	1	47	1	none	0.5	0.512882	blue	1	down	down	GLO	right	close	0	intact	none	none	0	0	0.84803	0	1	up	blue	1	0	0
410	1	48	1	none	0.5	0.509508	blue	0	up	up	GLO	left	far	0	intact	none	none	0	0	0.56072	0	1	up	blue	1	0	0
410	1	49	1	none	0.5	0.512115	red	0	down	down	GLO	right	far	0	intact	none	none	0	0	0.53136	0	1	down	red	1	0	0
410	1	50	1	none	0.5	0.512325	green	1	up	up	GLO	left	close	0	intact	none	none	0	0	0.521915	0	1	up	blue	0	0	0
410	1	51	1	none	0.5	0.513094	green	0	right	right	GLO	right	close	0	intact	none	none	0	0	0.676289	0	1	right	green	1	0	0
410	1	52	1	none	0.5	0.513843	red	1	left	left	GLO	right	close	0	intact	none	none	0	0	0.838016	0	1	down	red	1	0	0
410	1	53	1	none	0.5	0.515267	green	0	right	right	GLO	right	far	0	intact	none	none	0	0	0.598235	0	1	right	green	1	0	0
410	1	54	1	none	1.5	1.51197	red	0	down	down	GLO	left	far	0	intact	none	none	0	0	0.998577	0	1	down	red	1	0	0
410	1	55	1	none	1.5	1.51187	green	0	right	right	GLO	left	far	0	intact	none	none	0	0	0.655504	0	1	right	green	1	0	0
410	1	56	1	none	1.5	1.51225	green	1	up	up	GLO	right	far	0	intact	none	none	0	0	0.673028	0	1	right	green	1	0	0
410	1	57	1	none	1.5	1.51296	green	1	left	left	GLO	right	close	0	intact	none	none	0	0	0.631466	0	1	right	green	1	0	0
410	1	58	1	none	1.5	1.5118	red	1	right	right	GLO	left	far	0	intact	none	none	0	0	0.682788	0	1	down	red	1	0	0
410	1	59	1	none	1.5	1.51424	green	0	right	right	GLO	left	far	0	intact	none	none	0	0	0.511734	0	1	right	green	1	0	0
410	1	60	1	none	1.5	1.51242	green	1	down	down	GLO	right	close	0	intact	none	none	0	0	0.781286	0	1	right	green	1	0	0
410	1	61	1	none	1.5	1.51351	blue	0	up	up	GLO	left	far	0	intact	none	none	0	0	0.765329	0	1	up	blue	1	0	0
410	1	62	1	none	1.5	1.51373	red	0	down	down	GLO	right	close	0	intact	none	none	0	0	0.681843	0	1	down	red	1	0	0
410	1	63	1	none	1.5	1.51205	green	0	right	right	GLO	right	far	0	intact	none	none	0	0	0.690468	0	1	right	green	1	0	0
410	1	64	1	none	1.5	1.51065	blue	1	left	left	GLO	right	far	0	intact	none	none	0	0	1.0823	0	1	up	blue	1	0	0
410	1	65	1	none	1.5	1.51017	red	1	right	right	GLO	right	close	0	intact	none	none	0	0	1.21404	0	1	down	red	1	0	0
410	1	66	1	none	1.5	1.51386	green	1	up	up	GLO	right	close	0	intact	none	none	0	0	0.806413	0	1	right	green	1	0	0
410	1	67	1	none	1.5	1.51199	blue	1	left	left	GLO	left	close	0	intact	none	none	0	0	1.31442	0	1	left	yellow	0	0	0
410	1	68	1	none	1.5	1.51502	red	0	down	down	GLO	right	far	0	intact	none	none	0	0	1.24738	0	1	down	red	1	0	0
410	1	69	1	none	1.5	1.51262	green	0	right	right	GLO	right	far	0	intact	none	none	0	0	0.564336	0	1	right	green	1	0	0
410	1	70	1	none	1.5	1.51293	green	0	right	right	GLO	right	close	0	intact	none	none	0	0	0.898692	0	1	right	green	1	0	0
410	1	71	1	none	1.5	1.51125	blue	1	down	down	GLO	right	far	0	intact	none	none	0	0	1.27948	0	1	up	blue	1	0	0
410	1	72	1	none	1.5	1.51118	yellow	0	left	left	GLO	right	far	0	intact	none	none	0	0	0.881869	0	1	left	yellow	1	0	0
410	1	73	1	none	1.5	1.51186	red	0	down	down	GLO	right	close	0	intact	none	none	0	0	0.930937	0	1	down	red	1	0	0
410	1	74	1	none	1.5	1.51163	yellow	0	left	left	GLO	left	far	0	intact	none	none	0	0	0.865248	0	1	left	yellow	1	0	0
410	1	75	1	none	1.5	1.51153	red	0	down	down	GLO	left	far	0	intact	none	none	0	0	0.809623	0	1	down	red	1	0	0
410	1	76	1	none	1.5	1.51013	red	0	down	down	GLO	left	close	0	intact	none	none	0	0	0.681962	0	1	down	red	1	0	0
410	1	77	1	none	1.5	1.51124	blue	1	down	down	GLO	left	far	0	intact	none	none	0	0	1.24894	0	1	up	blue	1	0	0
410	1	78	1	none	1.5	1.51171	blue	0	up	up	GLO	left	close	0	intact	none	none	0	0	0.682388	0	1	up	blue	1	0	0
410	1	79	1	none	1.5	1.50988	red	0	down	down	GLO	right	close	0	intact	none	none	0	0	0.696597	0	1	down	red	1	0	0
410	1	80	1	none	1.5	1.5122	green	1	left	left	GLO	right	far	0	intact	none	none	0	0	0.799294	0	1	right	green	1	0	0
410	1	81	1	none	1.5	1.51117	blue	1	right	right	GLO	right	far	0	intact	none	none	0	0	1.14936	0	1	up	blue	1	0	0
410	1	82	1	none	1.5	1.51465	blue	0	up	up	GLO	left	far	0	intact	none	none	0	0	0.564132	0	1	up	blue	1	0	0
410	1	83	1	none	1.5	1.51181	blue	1	left	left	GLO	left	close	0	intact	none	none	0	0	0.664397	0	1	up	blue	1	0	0
410	1	84	1	none	1.5	1.51244	red	0	down	down	GLO	right	far	0	intact	none	none	0	0	0.513599	0	1	down	red	1	0	0
410	1	85	1	none	1.5	1.51514	yellow	0	left	left	GLO	right	far	0	intact	none	none	0	0	0.629109	0	1	left	yellow	1	0	0
410	1	86	1	none	1.5	1.51284	blue	1	left	left	GLO	left	close	0	intact	none	none	0	0	1.03224	0	1	up	blue	1	0	0
410	1	87	1	none	1.5	1.51093	green	1	up	up	GLO	left	close	0	intact	none	none	0	0	0.714263	0	1	right	green	1	0	0
410	1	88	1	none	1.5	1.51152	blue	0	up	up	GLO	right	close	0	intact	none	none	0	0	0.814124	0	1	up	blue	1	0	0
410	1	89	1	none	1.5	NaN	yellow	0	left	left	GLO	none	far	0	intact	none	none	0	0	NaN	NaN	NaN	none	none	NaN	0	0
410	1	90	1	none	1.5	NaN	green	0	right	right	GLO	none	far	0	intact	none	none	0	0	NaN	NaN	NaN	none	none	NaN	0	0
410	1	91	1	none	1.5	NaN	blue	0	up	up	GLO	none	far	0	intact	none	none	0	0	NaN	NaN	NaN	none	none	NaN	0	0
410	1	92	1	none	1.5	NaN	red	1	up	up	GLO	none	close	0	intact	none	none	0	0	NaN	NaN	NaN	none	none	NaN	0	0
410	1	93	1	none	1.5	NaN	green	0	right	right	GLO	none	far	0	intact	none	none	0	0	NaN	NaN	NaN	none	none	NaN	0	0
410	1	94	1	none	1.5	NaN	yellow	0	left	left	GLO	none	far	0	intact	none	none	0	0	NaN	NaN	NaN	none	none	NaN	0	0
410	1	95	1	none	1.5	NaN	yellow	0	left	left	GLO	none	close	0	intact	none	none	0	0	NaN	NaN	NaN	none	none	NaN	0	0
410	1	96	1	none	1.5	NaN	yellow	1	up	up	GLO	none	close	0	intact	none	none	0	0	NaN	NaN	NaN	none	none	NaN	0	0
410	1	97	1	none	1.5	NaN	yellow	0	left	left	GLO	none	close	0	intact	none	none	0	0	NaN	NaN	NaN	none	none	NaN	0	0
410	1	98	1	none	1.5	NaN	blue	1	right	right	GLO	none	close	0	intact	none	none	0	0	NaN	NaN	NaN	none	none	NaN	0	0
410	1	99	1	none	1.5	NaN	blue	1	left	left	GLO	none	far	0	intact	none	none	0	0	NaN	NaN	NaN	none	none	NaN	0	0
410	1	100	1	none	1.5	NaN	yellow	1	up	up	GLO	none	far	0	intact	none	none	0	0	NaN	NaN	NaN	none	none	NaN	0	0
410	1	101	1	none	1.5	NaN	blue	1	left	left	GLO	none	close	0	intact	none	none	0	0	NaN	NaN	NaN	none	none	NaN	0	0
410	1	102	1	none	1.5	NaN	green	0	right	right	GLO	none	close	0	intact	none	none	0	0	NaN	NaN	NaN	none	none	NaN	0	0
410	1	103	1	none	1.5	NaN	red	1	right	right	GLO	none	close	0	intact	none	none	0	0	NaN	NaN	NaN	none	none	NaN	0	0
410	1	104	1	none	1.5	NaN	yellow	0	left	left	GLO	none	close	0	intact	none	none	0	0	NaN	NaN	NaN	none	none	NaN	0	0
410	1	105	1	none	1.5	NaN	green	0	right	right	GLO	none	close	0	intact	none	none	0	0	NaN	NaN	NaN	none	none	NaN	0	0
410	1	106	1	none	1.5	NaN	yellow	1	right	right	GLO	none	far	0	intact	none	none	0	0	NaN	NaN	NaN	none	none	NaN	0	0
410	1	107	1	none	1.5	NaN	yellow	1	right	right	GLO	none	far	0	intact	none	none	0	0	NaN	NaN	NaN	none	none	NaN	0	0
410	1	108	1	none	1.5	NaN	yellow	1	down	down	GLO	none	far	0	intact	none	none	0	0	NaN	NaN	NaN	none	none	NaN	0	0
410	1	109	1	none	1.5	NaN	green	1	up	up	GLO	none	far	0	intact	none	none	0	0	NaN	NaN	NaN	none	none	NaN	0	0
410	1	110	1	none	1.5	NaN	red	1	up	up	GLO	none	close	0	intact	none	none	0	0	NaN	NaN	NaN	none	none	NaN	0	0
410	1	111	1	none	1.5	NaN	blue	1	right	right	GLO	none	close	0	intact	none	none	0	0	NaN	NaN	NaN	none	none	NaN	0	0
410	1	112	1	none	1.5	NaN	yellow	0	left	left	GLO	none	far	0	intact	none	none	0	0	NaN	NaN	NaN	none	none	NaN	0	0
410	1	113	1	none	1.5	NaN	yellow	0	left	left	GLO	none	close	0	intact	none	none	0	0	NaN	NaN	NaN	none	none	NaN	0	0
410	1	114	1	none	1.5	NaN	red	0	down	down	GLO	none	close	0	intact	none	none	0	0	NaN	NaN	NaN	none	none	NaN	0	0
410	1	115	1	none	1.5	NaN	red	0	down	down	GLO	none	close	0	intact	none	none	0	0	NaN	NaN	NaN	none	none	NaN	0	0
410	1	116	1	none	1.5	NaN	green	1	down	down	GLO	none	close	0	intact	none	none	0	0	NaN	NaN	NaN	none	none	NaN	0	0
410	1	117	1	none	1.5	NaN	green	1	left	left	GLO	none	close	0	intact	none	none	0	0	NaN	NaN	NaN	none	none	NaN	0	0
410	1	118	1	none	1.5	NaN	blue	1	down	down	GLO	none	close	0	intact	none	none	0	0	NaN	NaN	NaN	none	none	NaN	0	0
410	1	119	1	none	1.5	NaN	green	1	left	left	GLO	none	close	0	intact	none	none	0	0	NaN	NaN	NaN	none	none	NaN	0	0
410	1	120	1	none	1.5	NaN	blue	0	up	up	GLO	none	far	0	intact	none	none	0	0	NaN	NaN	NaN	none	none	NaN	0	0
410	1	121	1	none	1.5	NaN	yellow	0	left	left	GLO	none	close	0	intact	none	none	0	0	NaN	NaN	NaN	none	none	NaN	0	0
410	1	122	1	none	1.5	NaN	green	1	down	down	GLO	none	close	0	intact	none	none	0	0	NaN	NaN	NaN	none	none	NaN	0	0
410	1	123	1	none	1.5	NaN	red	0	down	down	GLO	none	close	0	intact	none	none	0	0	NaN	NaN	NaN	none	none	NaN	0	0
410	1	124	1	none	1.5	NaN	green	1	left	left	GLO	none	close	0	intact	none	none	0	0	NaN	NaN	NaN	none	none	NaN	0	0
410	1	125	1	none	1.5	NaN	yellow	0	left	left	GLO	none	far	0	intact	none	none	0	0	NaN	NaN	NaN	none	none	NaN	0	0
410	1	126	1	none	1.5	NaN	yellow	1	right	right	GLO	none	close	0	intact	none	none	0	0	NaN	NaN	NaN	none	none	NaN	0	0
410	1	127	1	none	1.5	NaN	red	0	down	down	GLO	none	far	0	intact	none	none	0	0	NaN	NaN	NaN	none	none	NaN	0	0
410	1	128	1	none	1.5	NaN	green	0	right	right	GLO	none	far	0	intact	none	none	0	0	NaN	NaN	NaN	none	none	NaN	0	0
410	1	129	1	none	1.5	NaN	yellow	1	down	down	GLO	none	close	0	intact	none	none	0	0	NaN	NaN	NaN	none	none	NaN	0	0
410	1	130	1	none	1.5	NaN	red	1	left	left	GLO	none	far	0	intact	none	none	0	0	NaN	NaN	NaN	none	none	NaN	0	0
410	1	131	1	none	1.5	NaN	green	0	right	right	GLO	none	far	0	intact	none	none	0	0	NaN	NaN	NaN	none	none	NaN	0	0
410	1	132	1	none	1.5	NaN	red	1	right	right	GLO	none	far	0	intact	none	none	0	0	NaN	NaN	NaN	none	none	NaN	0	0
410	1	133	1	none	1.5	NaN	yellow	1	up	up	GLO	none	close	0	intact	none	none	0	0	NaN	NaN	NaN	none	none	NaN	0	0
410	1	134	1	none	1.5	NaN	red	0	down	down	GLO	none	close	0	intact	none	none	0	0	NaN	NaN	NaN	none	none	NaN	0	0
410	1	135	1	none	1.5	NaN	red	1	left	left	GLO	none	close	0	intact	none	none	0	0	NaN	NaN	NaN	none	none	NaN	0	0
410	1	136	1	none	1.5	NaN	blue	0	up	up	GLO	none	close	0	intact	none	none	0	0	NaN	NaN	NaN	none	none	NaN	0	0
410	1	137	1	none	1.5	NaN	green	1	up	up	GLO	none	far	0	intact	none	none	0	0	NaN	NaN	NaN	none	none	NaN	0	0
410	1	138	1	none	1.5	NaN	red	1	right	right	GLO	none	far	0	intact	none	none	0	0	NaN	NaN	NaN	none	none	NaN	0	0
410	1	139	1	none	1.5	NaN	red	0	down	down	GLO	none	far	0	intact	none	none	0	0	NaN	NaN	NaN	none	none	NaN	0	0
410	1	140	1	none	1.5	NaN	red	1	right	right	GLO	none	close	0	intact	none	none	0	0	NaN	NaN	NaN	none	none	NaN	0	0
410	1	141	1	none	1.5	NaN	green	1	up	up	GLO	none	close	0	intact	none	none	0	0	NaN	NaN	NaN	none	none	NaN	0	0
410	1	142	1	none	1.5	NaN	yellow	1	right	right	GLO	none	far	0	intact	none	none	0	0	NaN	NaN	NaN	none	none	NaN	0	0
410	1	143	1	none	1.5	NaN	green	0	right	right	GLO	none	far	0	intact	none	none	0	0	NaN	NaN	NaN	none	none	NaN	0	0
410	1	144	1	none	1.5	NaN	green	0	right	right	GLO	none	close	0	intact	none	none	0	0	NaN	NaN	NaN	none	none	NaN	0	0
410	1	145	1	none	1.5	NaN	green	0	right	right	GLO	none	close	0	intact	none	none	0	0	NaN	NaN	NaN	none	none	NaN	0	0
410	1	146	1	none	1.5	NaN	blue	1	down	down	GLO	none	close	0	intact	none	none	0	0	NaN	NaN	NaN	none	none	NaN	0	0
410	1	147	1	none	1.5	NaN	red	1	right	right	GLO	none	close	0	intact	none	none	0	0	NaN	NaN	NaN	none	none	NaN	0	0
410	1	148	1	none	1.5	NaN	red	0	down	down	GLO	none	close	0	intact	none	none	0	0	NaN	NaN	NaN	none	none	NaN	0	0
410	1	149	1	none	1.5	NaN	green	0	right	right	GLO	none	close	0	intact	none	none	0	0	NaN	NaN	NaN	none	none	NaN	0	0
410	1	150	1	none	1.5	NaN	blue	1	right	right	GLO	none	far	0	intact	none	none	0	0	NaN	NaN	NaN	none	none	NaN	0	0
410	1	151	1	none	1.5	NaN	blue	0	up	up	GLO	none	far	0	intact	none	none	0	0	NaN	NaN	NaN	none	none	NaN	0	0
410	1	152	1	none	1.5	NaN	blue	0	up	up	GLO	none	far	0	intact	none	none	0	0	NaN	NaN	NaN	none	none	NaN	0	0
410	1	153	1	none	1.5	NaN	blue	0	up	up	GLO	none	close	0	intact	none	none	0	0	NaN	NaN	NaN	none	none	NaN	0	0
410	1	154	1	none	1.5	NaN	blue	0	up	up	GLO	none	close	0	intact	none	none	0	0	NaN	NaN	NaN	none	none	NaN	0	0
410	1	155	1	none	1.5	NaN	green	1	down	down	GLO	none	close	0	intact	none	none	0	0	NaN	NaN	NaN	none	none	NaN	0	0
410	1	156	1	none	1.5	NaN	red	1	left	left	GLO	none	close	0	intact	none	none	0	0	NaN	NaN	NaN	none	none	NaN	0	0
410	1	157	1	none	1.5	NaN	yellow	0	left	left	GLO	none	close	0	intact	none	none	0	0	NaN	NaN	NaN	none	none	NaN	0	0
410	1	158	1	none	1.5	NaN	green	0	right	right	GLO	none	close	0	intact	none	none	0	0	NaN	NaN	NaN	none	none	NaN	0	0
410	1	159	1	none	1.5	NaN	green	0	right	right	GLO	none	close	0	intact	none	none	0	0	NaN	NaN	NaN	none	none	NaN	0	0
410	1	160	1	none	1.5	NaN	red	0	down	down	GLO	none	far	0	intact	none	none	0	0	NaN	NaN	NaN	none	none	NaN	0	0
410	1	161	1	none	1.5	NaN	blue	1	left	left	GLO	none	far	0	intact	none	none	0	0	NaN	NaN	NaN	none	none	NaN	0	0
410	1	162	1	none	1.5	NaN	red	1	up	up	GLO	none	close	0	intact	none	none	0	0	NaN	NaN	NaN	none	none	NaN	0	0
410	1	163	1	none	1.5	NaN	yellow	1	down	down	GLO	none	close	0	intact	none	none	0	0	NaN	NaN	NaN	none	none	NaN	0	0
410	1	164	1	none	1.5	NaN	red	0	down	down	GLO	none	far	0	intact	none	none	0	0	NaN	NaN	NaN	none	none	NaN	0	0
410	1	165	1	none	1.5	NaN	green	1	down	down	GLO	none	far	0	intact	none	none	0	0	NaN	NaN	NaN	none	none	NaN	0	0
410	1	166	1	none	1.5	NaN	blue	1	right	right	GLO	none	far	0	intact	none	none	0	0	NaN	NaN	NaN	none	none	NaN	0	0
410	1	167	1	none	1.5	NaN	red	0	down	down	GLO	none	close	0	intact	none	none	0	0	NaN	NaN	NaN	none	none	NaN	0	0
410	1	168	1	none	1.5	NaN	red	0	down	down	GLO	none	close	0	intact	none	none	0	0	NaN	NaN	NaN	none	none	NaN	0	0
410	1	169	1	none	1.5	NaN	green	0	right	right	GLO	none	far	0	intact	none	none	0	0	NaN	NaN	NaN	none	none	NaN	0	0
410	1	170	1	none	1.5	NaN	blue	1	down	down	GLO	none	far	0	intact	none	none	0	0	NaN	NaN	NaN	none	none	NaN	0	0
410	1	171	1	none	1.5	NaN	yellow	0	left	left	GLO	none	far	0	intact	none	none	0	0	NaN	NaN	NaN	none	none	NaN	0	0
410	1	172	1	none	1.5	NaN	red	1	up	up	GLO	none	far	0	intact	none	none	0	0	NaN	NaN	NaN	none	none	NaN	0	0
410	1	173	1	none	1.5	NaN	green	0	right	right	GLO	none	far	0	intact	none	none	0	0	NaN	NaN	NaN	none	none	NaN	0	0
410	1	174	1	none	1.5	NaN	red	1	right	right	GLO	none	far	0	intact	none	none	0	0	NaN	NaN	NaN	none	none	NaN	0	0
410	1	175	1	none	1.5	NaN	blue	1	down	down	GLO	none	far	0	intact	none	none	0	0	NaN	NaN	NaN	none	none	NaN	0	0
410	1	176	1	none	1.5	NaN	red	1	left	left	GLO	none	far	0	intact	none	none	0	0	NaN	NaN	NaN	none	none	NaN	0	0
410	1	177	1	none	1.5	NaN	yellow	0	left	left	GLO	none	far	0	intact	none	none	0	0	NaN	NaN	NaN	none	none	NaN	0	0
410	1	178	1	none	1.5	NaN	yellow	1	up	up	GLO	none	far	0	intact	none	none	0	0	NaN	NaN	NaN	none	none	NaN	0	0
410	1	179	1	none	1.5	NaN	yellow	0	left	left	GLO	none	far	0	intact	none	none	0	0	NaN	NaN	NaN	none	none	NaN	0	0
410	1	180	1	none	1.5	NaN	red	0	down	down	GLO	none	far	0	intact	none	none	0	0	NaN	NaN	NaN	none	none	NaN	0	0
410	1	181	1	none	1.5	NaN	blue	1	left	left	GLO	none	close	0	intact	none	none	0	0	NaN	NaN	NaN	none	none	NaN	0	0
410	1	182	1	none	1.5	NaN	blue	1	down	down	GLO	none	far	0	intact	none	none	0	0	NaN	NaN	NaN	none	none	NaN	0	0
410	1	183	1	none	1.5	NaN	blue	1	left	left	GLO	none	close	0	intact	none	none	0	0	NaN	NaN	NaN	none	none	NaN	0	0
410	1	184	1	none	1.5	NaN	green	1	up	up	GLO	none	close	0	intact	none	none	0	0	NaN	NaN	NaN	none	none	NaN	0	0
410	1	185	1	none	1.5	NaN	blue	0	up	up	GLO	none	close	0	intact	none	none	0	0	NaN	NaN	NaN	none	none	NaN	0	0
410	1	186	1	none	1.5	NaN	yellow	1	up	up	GLO	none	far	0	intact	none	none	0	0	NaN	NaN	NaN	none	none	NaN	0	0
410	1	187	1	none	1.5	NaN	green	1	up	up	GLO	none	close	0	intact	none	none	0	0	NaN	NaN	NaN	none	none	NaN	0	0
410	1	188	1	none	1.5	NaN	red	0	down	down	GLO	none	close	0	intact	none	none	0	0	NaN	NaN	NaN	none	none	NaN	0	0
410	1	189	1	none	1.5	NaN	blue	1	down	down	GLO	none	far	0	intact	none	none	0	0	NaN	NaN	NaN	none	none	NaN	0	0
410	1	190	1	none	1.5	NaN	green	0	right	right	GLO	none	close	0	intact	none	none	0	0	NaN	NaN	NaN	none	none	NaN	0	0
410	1	191	1	none	1.5	NaN	red	1	right	right	GLO	none	far	0	intact	none	none	0	0	NaN	NaN	NaN	none	none	NaN	0	0
410	1	192	1	none	1.5	NaN	blue	0	up	up	GLO	none	far	0	intact	none	none	0	0	NaN	NaN	NaN	none	none	NaN	0	0
410	1	193	1	none	1.5	NaN	blue	0	up	up	GLO	none	far	0	intact	none	none	0	0	NaN	NaN	NaN	none	none	NaN	0	0
410	1	194	1	none	1.5	NaN	red	1	left	left	GLO	none	close	0	intact	none	none	0	0	NaN	NaN	NaN	none	none	NaN	0	0
410	1	195	1	none	1.5	NaN	blue	1	right	right	GLO	none	close	0	intact	none	none	0	0	NaN	NaN	NaN	none	none	NaN	0	0
410	1	196	1	none	1.5	NaN	blue	0	up	up	GLO	none	far	0	intact	none	none	0	0	NaN	NaN	NaN	none	none	NaN	0	0
410	1	197	1	none	1.5	NaN	green	1	left	left	GLO	none	close	0	intact	none	none	0	0	NaN	NaN	NaN	none	none	NaN	0	0
410	1	198	1	none	1.5	NaN	yellow	0	left	left	GLO	none	close	0	intact	none	none	0	0	NaN	NaN	NaN	none	none	NaN	0	0
410	1	199	1	none	1.5	NaN	green	1	left	left	GLO	none	far	0	intact	none	none	0	0	NaN	NaN	NaN	none	none	NaN	0	0
410	1	200	1	none	1.5	NaN	green	1	left	left	GLO	none	far	0	intact	none	none	0	0	NaN	NaN	NaN	none	none	NaN	0	0
410	1	201	1	none	1.5	NaN	red	1	right	right	GLO	none	close	0	intact	none	none	0	0	NaN	NaN	NaN	none	none	NaN	0	0
410	1	202	1	none	1.5	NaN	blue	1	right	right	GLO	none	far	0	intact	none	none	0	0	NaN	NaN	NaN	none	none	NaN	0	0
410	1	203	1	none	1.5	NaN	blue	0	up	up	GLO	none	far	0	intact	none	none	0	0	NaN	NaN	NaN	none	none	NaN	0	0
410	1	204	1	none	1.5	NaN	blue	1	down	down	GLO	none	far	0	intact	none	none	0	0	NaN	NaN	NaN	none	none	NaN	0	0
410	1	205	1	none	1.5	NaN	green	0	right	right	GLO	none	far	0	intact	none	none	0	0	NaN	NaN	NaN	none	none	NaN	0	0
410	1	206	1	none	1.5	NaN	green	0	right	right	GLO	none	close	0	intact	none	none	0	0	NaN	NaN	NaN	none	none	NaN	0	0
410	1	207	1	none	1.5	NaN	yellow	0	left	left	GLO	none	close	0	intact	none	none	0	0	NaN	NaN	NaN	none	none	NaN	0	0
410	1	208	1	none	1.5	NaN	red	1	right	right	GLO	none	close	0	intact	none	none	0	0	NaN	NaN	NaN	none	none	NaN	0	0
410	1	209	1	none	1.5	NaN	yellow	0	left	left	GLO	none	close	0	intact	none	none	0	0	NaN	NaN	NaN	none	none	NaN	0	0
410	1	210	1	none	1.5	NaN	blue	0	up	up	GLO	none	close	0	intact	none	none	0	0	NaN	NaN	NaN	none	none	NaN	0	0
410	1	211	1	none	1.5	NaN	yellow	0	left	left	GLO	none	close	0	intact	none	none	0	0	NaN	NaN	NaN	none	none	NaN	0	0
410	1	212	1	none	1.5	NaN	yellow	0	left	left	GLO	none	far	0	intact	none	none	0	0	NaN	NaN	NaN	none	none	NaN	0	0
410	1	213	1	none	1.5	NaN	red	0	down	down	GLO	none	close	0	intact	none	none	0	0	NaN	NaN	NaN	none	none	NaN	0	0
410	1	214	1	none	1.5	NaN	green	0	right	right	GLO	none	close	0	intact	none	none	0	0	NaN	NaN	NaN	none	none	NaN	0	0
410	1	215	1	none	1.5	NaN	green	0	right	right	GLO	none	far	0	intact	none	none	0	0	NaN	NaN	NaN	none	none	NaN	0	0
410	1	216	1	none	1.5	NaN	blue	1	left	left	GLO	none	close	0	intact	none	none	0	0	NaN	NaN	NaN	none	none	NaN	0	0
410	1	217	1	none	1.5	NaN	blue	1	left	left	GLO	none	close	0	intact	none	none	0	0	NaN	NaN	NaN	none	none	NaN	0	0
410	1	218	1	none	1.5	NaN	blue	1	down	down	GLO	none	far	0	intact	none	none	0	0	NaN	NaN	NaN	none	none	NaN	0	0
410	1	219	1	none	1.5	NaN	yellow	0	left	left	GLO	none	close	0	intact	none	none	0	0	NaN	NaN	NaN	none	none	NaN	0	0
410	1	220	1	none	1.5	NaN	red	0	down	down	GLO	none	close	0	intact	none	none	0	0	NaN	NaN	NaN	none	none	NaN	0	0
410	1	221	1	none	1.5	NaN	red	1	up	up	GLO	none	far	0	intact	none	none	0	0	NaN	NaN	NaN	none	none	NaN	0	0
410	1	222	1	none	1.5	NaN	red	1	right	right	GLO	none	far	0	intact	none	none	0	0	NaN	NaN	NaN	none	none	NaN	0	0
410	1	223	1	none	1.5	NaN	yellow	0	left	left	GLO	none	close	0	intact	none	none	0	0	NaN	NaN	NaN	none	none	NaN	0	0
410	1	224	1	none	1.5	NaN	red	1	left	left	GLO	none	close	0	intact	none	none	0	0	NaN	NaN	NaN	none	none	NaN	0	0
410	1	225	1	none	1.5	NaN	yellow	0	left	left	GLO	none	far	0	intact	none	none	0	0	NaN	NaN	NaN	none	none	NaN	0	0
410	1	226	1	none	1.5	NaN	yellow	1	up	up	GLO	none	close	0	intact	none	none	0	0	NaN	NaN	NaN	none	none	NaN	0	0
410	1	227	1	none	1.5	NaN	green	0	right	right	GLO	none	close	0	intact	none	none	0	0	NaN	NaN	NaN	none	none	NaN	0	0
410	1	228	1	none	1.5	NaN	blue	0	up	up	GLO	none	close	0	intact	none	none	0	0	NaN	NaN	NaN	none	none	NaN	0	0
410	1	229	1	none	1.5	NaN	green	0	right	right	GLO	none	close	0	intact	none	none	0	0	NaN	NaN	NaN	none	none	NaN	0	0
410	1	230	1	none	1.5	NaN	yellow	0	left	left	GLO	none	close	0	intact	none	none	0	0	NaN	NaN	NaN	none	none	NaN	0	0
410	1	231	1	none	1.5	NaN	green	1	left	left	GLO	none	close	0	intact	none	none	0	0	NaN	NaN	NaN	none	none	NaN	0	0
410	1	232	1	none	1.5	NaN	yellow	1	down	down	GLO	none	close	0	intact	none	none	0	0	NaN	NaN	NaN	none	none	NaN	0	0
410	1	233	1	none	1.5	NaN	green	0	right	right	GLO	none	close	0	intact	none	none	0	0	NaN	NaN	NaN	none	none	NaN	0	0
410	1	234	1	none	1.5	NaN	red	1	left	left	GLO	none	far	0	intact	none	none	0	0	NaN	NaN	NaN	none	none	NaN	0	0
410	1	235	1	none	1.5	NaN	red	1	left	left	GLO	none	close	0	intact	none	none	0	0	NaN	NaN	NaN	none	none	NaN	0	0
410	1	236	1	none	1.5	NaN	blue	0	up	up	GLO	none	close	0	intact	none	none	0	0	NaN	NaN	NaN	none	none	NaN	0	0
410	1	237	1	none	1.5	NaN	red	1	left	left	GLO	none	far	0	intact	none	none	0	0	NaN	NaN	NaN	none	none	NaN	0	0
410	1	238	1	none	1.5	NaN	red	1	right	right	GLO	none	close	0	intact	none	none	0	0	NaN	NaN	NaN	none	none	NaN	0	0
410	1	239	1	none	1.5	NaN	yellow	1	right	right	GLO	none	close	0	intact	none	none	0	0	NaN	NaN	NaN	none	none	NaN	0	0
410	1	240	1	none	1.5	NaN	blue	1	right	right	GLO	none	close	0	intact	none	none	0	0	NaN	NaN	NaN	none	none	NaN	0	0
410	1	241	1	none	1.5	NaN	green	0	right	right	GLO	none	far	0	intact	none	none	0	0	NaN	NaN	NaN	none	none	NaN	0	0
410	1	242	1	none	1.5	NaN	yellow	0	left	left	GLO	none	close	0	intact	none	none	0	0	NaN	NaN	NaN	none	none	NaN	0	0
410	1	243	1	none	1.5	NaN	green	1	up	up	GLO	none	far	0	intact	none	none	0	0	NaN	NaN	NaN	none	none	NaN	0	0
410	1	244	1	none	1.5	NaN	blue	1	right	right	GLO	none	far	0	intact	none	none	0	0	NaN	NaN	NaN	none	none	NaN	0	0
410	1	245	1	none	1.5	NaN	red	0	down	down	GLO	none	far	0	intact	none	none	0	0	NaN	NaN	NaN	none	none	NaN	0	0
410	1	246	1	none	1.5	NaN	red	0	down	down	GLO	none	far	0	intact	none	none	0	0	NaN	NaN	NaN	none	none	NaN	0	0
410	1	247	1	none	1.5	NaN	blue	0	up	up	GLO	none	far	0	intact	none	none	0	0	NaN	NaN	NaN	none	none	NaN	0	0
410	1	248	1	none	1.5	NaN	red	1	up	up	GLO	none	far	0	intact	none	none	0	0	NaN	NaN	NaN	none	none	NaN	0	0
410	1	249	1	none	1.5	NaN	yellow	1	up	up	GLO	none	far	0	intact	none	none	0	0	NaN	NaN	NaN	none	none	NaN	0	0
410	1	250	1	none	1.5	NaN	yellow	1	up	up	GLO	none	far	0	intact	none	none	0	0	NaN	NaN	NaN	none	none	NaN	0	0
410	1	251	1	none	1.5	NaN	red	0	down	down	GLO	none	far	0	intact	none	none	0	0	NaN	NaN	NaN	none	none	NaN	0	0
410	1	252	1	none	1.5	NaN	green	1	up	up	GLO	none	far	0	intact	none	none	0	0	NaN	NaN	NaN	none	none	NaN	0	0
410	1	253	1	none	1.5	NaN	red	1	up	up	GLO	none	close	0	intact	none	none	0	0	NaN	NaN	NaN	none	none	NaN	0	0
410	1	254	1	none	1.5	NaN	green	0	right	right	GLO	none	far	0	intact	none	none	0	0	NaN	NaN	NaN	none	none	NaN	0	0
410	1	255	1	none	1.5	NaN	green	0	right	right	GLO	none	far	0	intact	none	none	0	0	NaN	NaN	NaN	none	none	NaN	0	0
410	1	256	1	none	1.5	NaN	green	1	left	left	GLO	none	far	0	intact	none	none	0	0	NaN	NaN	NaN	none	none	NaN	0	0
410	1	257	1	none	1.5	NaN	green	0	right	right	GLO	none	close	0	intact	none	none	0	0	NaN	NaN	NaN	none	none	NaN	0	0
410	1	258	1	none	1.5	NaN	red	1	right	right	GLO	none	close	0	intact	none	none	0	0	NaN	NaN	NaN	none	none	NaN	0	0
410	1	259	1	none	1.5	NaN	green	0	right	right	GLO	none	far	0	intact	none	none	0	0	NaN	NaN	NaN	none	none	NaN	0	0
410	1	260	1	none	1.5	NaN	yellow	0	left	left	GLO	none	far	0	intact	none	none	0	0	NaN	NaN	NaN	none	none	NaN	0	0
410	1	261	1	none	1.5	NaN	blue	1	right	right	GLO	none	close	0	intact	none	none	0	0	NaN	NaN	NaN	none	none	NaN	0	0
410	1	262	1	none	1.5	NaN	yellow	1	down	down	GLO	none	far	0	intact	none	none	0	0	NaN	NaN	NaN	none	none	NaN	0	0
410	1	263	1	none	1.5	NaN	red	0	down	down	GLO	none	close	0	intact	none	none	0	0	NaN	NaN	NaN	none	none	NaN	0	0
410	1	264	1	none	1.5	NaN	yellow	0	left	left	GLO	none	close	0	intact	none	none	0	0	NaN	NaN	NaN	none	none	NaN	0	0
410	1	265	1	none	1.5	NaN	blue	1	down	down	GLO	none	far	0	intact	none	none	0	0	NaN	NaN	NaN	none	none	NaN	0	0
410	1	266	1	none	1.5	NaN	red	0	down	down	GLO	none	far	0	intact	none	none	0	0	NaN	NaN	NaN	none	none	NaN	0	0
410	1	267	1	none	1.5	NaN	green	0	right	right	GLO	none	close	0	intact	none	none	0	0	NaN	NaN	NaN	none	none	NaN	0	0
410	1	268	1	none	1.5	NaN	blue	1	down	down	GLO	none	close	0	intact	none	none	0	0	NaN	NaN	NaN	none	none	NaN	0	0
410	1	269	1	none	1.5	NaN	red	1	left	left	GLO	none	far	0	intact	none	none	0	0	NaN	NaN	NaN	none	none	NaN	0	0
410	1	270	1	none	1.5	NaN	yellow	1	up	up	GLO	none	far	0	intact	none	none	0	0	NaN	NaN	NaN	none	none	NaN	0	0
410	1	271	1	none	1.5	NaN	green	1	left	left	GLO	none	close	0	intact	none	none	0	0	NaN	NaN	NaN	none	none	NaN	0	0
410	1	272	1	none	1.5	NaN	yellow	1	right	right	GLO	none	far	0	intact	none	none	0	0	NaN	NaN	NaN	none	none	NaN	0	0
410	1	273	1	none	1.5	NaN	blue	1	right	right	GLO	none	close	0	intact	none	none	0	0	NaN	NaN	NaN	none	none	NaN	0	0
410	1	274	1	none	1.5	NaN	blue	0	up	up	GLO	none	close	0	intact	none	none	0	0	NaN	NaN	NaN	none	none	NaN	0	0
410	1	275	1	none	1.5	NaN	blue	0	up	up	GLO	none	far	0	intact	none	none	0	0	NaN	NaN	NaN	none	none	NaN	0	0
410	1	276	1	none	1.5	NaN	blue	0	up	up	GLO	none	close	0	intact	none	none	0	0	NaN	NaN	NaN	none	none	NaN	0	0
410	1	277	1	none	1.5	NaN	red	0	down	down	GLO	none	close	0	intact	none	none	0	0	NaN	NaN	NaN	none	none	NaN	0	0
410	2	1	1	self	0.5	0.516905	green	1	up	up	GLO	right	far	1	intact	intact	Dec30_fps_avg_aud.mp4	0	0	3.14249	0	1	right	green	1	0	0
410	2	2	1	self	0.5	0.513126	red	1	left	left	GLO	right	close	1	intact	intact	7b9f55fa-3ddf-4c84-bb13-2413d53cbf75_fps_avg_aud.mp4	0	0	1.47423	0	1	down	red	1	0	0
410	2	3	1	self	0.5	0.513727	blue	0	up	up	GLO	left	far	1	intact	intact	b502b8fe-bf35-4777-bc2b-b5e93b1b3223_fps_avg_aud.mp4	0	0	0.882034	0	1	up	blue	1	0	0
410	2	4	1	self	0.5	0.515823	red	0	down	down	GLO	left	far	1	intact	intact	October_25_2016_fps_avg_aud.mp4	0	0	0.897003	0	1	down	red	1	0	0
410	2	5	1	self	0.5	0.51355	blue	1	left	left	GLO	right	close	1	intact	intact	0096623f-bd93-48df-96f9-85a0a749a586_fps_avg_aud.mp4	0	0	1.73109	0	1	up	blue	1	0	0
410	2	6	1	self	0.5	0.514448	green	1	left	left	GLO	left	far	1	intact	intact	May_2016_fps_avg_aud.mp4	0	0	0.630609	0	1	right	green	1	0	0
410	2	7	1	self	0.5	0.511913	red	1	up	up	GLO	right	close	1	intact	intact	a3a57263-6857-435d-87b3-5c44ae53e10a_fps_avg_aud.mp4	0	0	0.756916	0	1	down	red	1	0	0
410	2	8	1	self	0.5	0.513771	blue	1	right	right	GLO	right	far	1	intact	intact	01d130af-ffff-4cd1-b39d-35c47d44cd3d_fps_avg_aud.mp4	0	0	0.903849	0	1	up	blue	1	0	0
410	2	9	1	self	0.5	0.515151	blue	0	up	up	GLO	right	close	1	intact	intact	241df9f5-fbf5-49b9-a03c-764ba4b6ace9_fps_avg_aud.mp4	0	0	0.598065	0	1	up	blue	1	0	0
410	2	10	1	self	0.5	0.513934	yellow	1	down	down	GLO	left	far	1	intact	intact	Jan5_fps_avg_aud.mp4	0	0	0.715063	0	1	left	yellow	1	0	0
410	2	11	1	self	0.5	0.512628	red	1	right	right	GLO	left	far	1	intact	intact	Jun6_fps_avg_aud.mp4	0	0	0.632915	0	1	right	green	0	0	0
410	2	12	1	self	0.5	0.513851	green	1	down	down	GLO	right	far	1	intact	intact	e5e9435d-267e-4f33-bd02-80f8eeedf363_fps_avg_aud.mp4	0	0	1.10436	0	1	right	green	1	0	0
410	2	13	1	self	0.5	0.514722	yellow	1	up	up	GLO	right	far	1	intact	intact	d4f25bdd-9060-452d-8b9a-299b4d79a939_fps_avg_aud.mp4	0	0	0.982028	0	1	left	yellow	1	0	0
410	2	14	1	self	0.5	0.510695	red	1	left	left	GLO	right	far	1	intact	intact	Nov30_fps_avg_aud.mp4	0	0	0.96501	0	1	down	red	1	0	0
410	2	15	1	self	0.5	0.51435	yellow	0	left	left	GLO	right	close	1	intact	intact	de0e4ce1-0f87-4077-b69c-578049fe4691_fps_avg_aud.mp4	0	0	0.83235	0	1	left	yellow	1	0	0
410	2	16	1	self	0.5	0.512108	blue	1	right	right	GLO	left	far	1	intact	intact	c5792f9d-c420-493b-acf2-46528babd08c_fps_avg_aud.mp4	0	0	1.26358	0	1	up	blue	1	0	0
410	2	17	1	self	1.5	1.51354	blue	1	left	left	GLO	left	close	1	intact	intact	June_2016_(1)_fps_avg_aud.mp4	0	0	1.36479	0	1	up	blue	1	0	0
410	2	18	1	self	1.5	1.51067	yellow	0	left	left	GLO	left	far	1	intact	intact	6d873e1d-8ad7-4688-a181-c3322982e4a6_fps_avg_aud.mp4	0	0	1.41674	0	1	left	yellow	1	0	0
410	2	19	1	self	1.5	1.51358	green	0	right	right	GLO	right	close	1	intact	intact	bd3765b8-eb64-440a-a4a8-b6804686fcae_fps_avg_aud.mp4	0	0	0.898117	0	1	right	green	1	0	0
410	2	20	1	self	1.5	1.5101	blue	0	up	up	GLO	left	far	1	intact	intact	d474c6db-95a4-4753-b361-ee940450cd55_fps_avg_aud.mp4	0	0	1.09794	0	1	up	blue	1	0	0
410	2	21	1	self	1.5	1.51164	blue	1	right	right	GLO	right	close	1	intact	intact	Jnauary_2016_fps_avg_aud.mp4	0	0	0.698215	0	1	up	blue	1	0	0
410	2	22	1	self	1.5	1.50855	yellow	1	up	up	GLO	right	far	1	intact	intact	a24b6226-d6e8-4655-b874-d79fefacec8c_fps_avg_aud.mp4	0	0	0.848411	0	1	left	yellow	1	0	0
410	2	23	1	self	1.5	1.51217	blue	0	up	up	GLO	right	close	1	intact	intact	Aug30_fps_avg_aud.mp4	0	0	0.732084	0	1	up	blue	1	0	0
410	2	24	1	self	1.5	1.51342	yellow	1	up	up	GLO	right	far	1	intact	intact	342c3db7-0e7e-4cf9-b04c-0d7bba48d8bb_fps_avg_aud.mp4	0	0	0.881493	0	1	left	yellow	1	0	0
410	2	25	1	self	1.5	1.51365	red	1	up	up	GLO	right	far	1	intact	intact	4d617426-ab8c-4125-9dcf-178529ca54a1_fps_avg_aud.mp4	0	0	1.11495	0	1	down	red	1	0	0
410	2	26	1	self	1.5	1.51144	green	1	up	up	GLO	left	far	1	intact	intact	Jun16_fps_avg_aud.mp4	0	0	0.69875	0	1	right	green	1	0	0
410	2	27	1	self	1.5	1.51307	green	1	up	up	GLO	left	far	1	intact	intact	11bc07f6-cbc9-48b9-a240-792e373d6a2a_fps_avg_aud.mp4	0	0	0.681049	0	1	right	green	1	0	0
410	2	28	1	self	1.5	NaN	blue	1	down	down	GLO	none	far	1	intact	intact	483a899a-71a0-49cf-b2ba-f13374d6b0a8_fps_avg_aud.mp4	0	0	NaN	NaN	NaN	none	none	NaN	0	0
410	2	29	1	self	1.5	NaN	red	0	down	down	GLO	none	close	1	intact	intact	54741aa9-fdb7-4546-b60b-078b0914ddd1_fps_avg_aud.mp4	0	0	NaN	NaN	NaN	none	none	NaN	0	0
410	2	30	1	self	1.5	NaN	green	1	down	down	GLO	none	far	1	intact	intact	May27_fps_avg_aud.mp4	0	0	NaN	NaN	NaN	none	none	NaN	0	0
410	2	31	1	self	1.5	NaN	red	1	right	right	GLO	none	close	1	intact	intact	September_2016_(2)_fps_avg_aud.mp4	0	0	NaN	NaN	NaN	none	none	NaN	0	0
410	2	32	1	self	1.5	NaN	green	1	up	up	GLO	none	far	1	intact	intact	690b1209-9514-4bd6-9698-3a990594f223_fps_avg_aud.mp4	0	0	NaN	NaN	NaN	none	none	NaN	0	0
410	2	33	1	self	1.5	NaN	red	0	down	down	GLO	none	close	1	intact	intact	e3992607-d25b-430c-bd18-12cb4a6d1b28_fps_avg_aud.mp4	0	0	NaN	NaN	NaN	none	none	NaN	0	0
410	2	34	1	self	1.5	NaN	green	1	down	down	GLO	none	far	1	intact	intact	a390325a-c9a6-4240-9459-3271767e2980_fps_avg_aud.mp4	0	0	NaN	NaN	NaN	none	none	NaN	0	0
410	2	35	1	self	1.5	NaN	yellow	1	down	down	GLO	none	far	1	intact	intact	Feb13_fps_avg_aud.mp4	0	0	NaN	NaN	NaN	none	none	NaN	0	0
410	2	36	1	self	1.5	NaN	yellow	1	up	up	GLO	none	close	1	intact	intact	7ef90bcf-5b2a-4df5-b522-5d3f1e9badf1_fps_avg_aud.mp4	0	0	NaN	NaN	NaN	none	none	NaN	0	0
410	2	37	1	self	1.5	NaN	red	0	down	down	GLO	none	far	1	intact	intact	4d7a8a8c-063f-4a89-bd24-c32713b6ffa7_fps_avg_aud.mp4	0	0	NaN	NaN	NaN	none	none	NaN	0	0
410	2	38	1	self	1.5	NaN	yellow	1	right	right	GLO	none	far	1	intact	intact	Sep24_fps_avg_aud.mp4	0	0	NaN	NaN	NaN	none	none	NaN	0	0
410	2	39	1	self	1.5	NaN	blue	0	up	up	GLO	none	close	1	intact	intact	6247a4ca-9a6e-47c1-91f4-5a9925a1c125_fps_avg_aud.mp4	0	0	NaN	NaN	NaN	none	none	NaN	0	0
410	2	40	1	self	1.5	NaN	green	0	right	right	GLO	none	close	1	intact	intact	Jul10_fps_avg_aud.mp4	0	0	NaN	NaN	NaN	none	none	NaN	0	0
410	2	41	1	self	1.5	NaN	green	0	right	right	GLO	none	far	1	intact	intact	23c8ed33-90c4-4605-8822-6270c3a6ca34_fps_avg_aud.mp4	0	0	NaN	NaN	NaN	none	none	NaN	0	0
410	2	42	1	self	1.5	NaN	red	0	down	down	GLO	none	far	1	intact	intact	17cb4c50-a413-43aa-8ef1-30df975b04f4_fps_avg_aud.mp4	0	0	NaN	NaN	NaN	none	none	NaN	0	0
410	2	43	1	self	1.5	NaN	yellow	1	right	right	GLO	none	far	1	intact	intact	Jun30_fps_avg_aud.mp4	0	0	NaN	NaN	NaN	none	none	NaN	0	0
410	2	44	1	self	1.5	NaN	red	0	down	down	GLO	none	far	1	intact	intact	1bfb8d40-5675-4acc-87b4-a7f11b6242ea_fps_avg_aud.mp4	0	0	NaN	NaN	NaN	none	none	NaN	0	0
410	2	45	1	self	1.5	NaN	yellow	1	down	down	GLO	none	close	1	intact	intact	cef9c179-f64d-4543-875f-6808da2329b6_fps_avg_aud.mp4	0	0	NaN	NaN	NaN	none	none	NaN	0	0
410	2	46	1	self	1.5	NaN	red	1	left	left	GLO	none	close	1	intact	intact	October_14_2016_fps_avg_aud.mp4	0	0	NaN	NaN	NaN	none	none	NaN	0	0
410	2	47	1	self	1.5	NaN	yellow	1	up	up	GLO	none	close	1	intact	intact	745865b0-d7b3-440f-840d-03f3a3ef51b1_fps_avg_aud.mp4	0	0	NaN	NaN	NaN	none	none	NaN	0	0
410	2	48	1	self	1.5	NaN	red	0	down	down	GLO	none	far	1	intact	intact	648cf5a2-5dc9-46b3-bf61-9e51533fa6ad_fps_avg_aud.mp4	0	0	NaN	NaN	NaN	none	none	NaN	0	0
410	2	49	1	self	1.5	NaN	blue	0	up	up	GLO	none	far	1	intact	intact	cad0ae4f-8fd8-463e-9880-f0c1f9462bac_fps_avg_aud.mp4	0	0	NaN	NaN	NaN	none	none	NaN	0	0
410	2	50	1	self	1.5	NaN	yellow	0	left	left	GLO	none	far	1	intact	intact	Aug12_fps_avg_aud.mp4	0	0	NaN	NaN	NaN	none	none	NaN	0	0
410	2	51	1	self	1.5	NaN	blue	1	right	right	GLO	none	far	1	intact	intact	Nov10_fps_avg_aud.mp4	0	0	NaN	NaN	NaN	none	none	NaN	0	0
410	2	52	1	self	1.5	NaN	red	1	left	left	GLO	none	close	1	intact	intact	Jul4_fps_avg_aud.mp4	0	0	NaN	NaN	NaN	none	none	NaN	0	0
410	2	53	1	self	1.5	NaN	green	0	right	right	GLO	none	close	1	intact	intact	b55ab065-b20b-4b90-b1fd-ca55d667b668_fps_avg_aud.mp4	0	0	NaN	NaN	NaN	none	none	NaN	0	0
410	2	54	1	self	1.5	NaN	green	1	left	left	GLO	none	close	1	intact	intact	Jan4_fps_avg_aud.mp4	0	0	NaN	NaN	NaN	none	none	NaN	0	0
410	2	55	1	self	1.5	NaN	green	0	right	right	GLO	none	far	1	intact	intact	7c00c850-e528-473f-895e-ee9be83c7963_fps_avg_aud.mp4	0	0	NaN	NaN	NaN	none	none	NaN	0	0
410	2	56	1	self	1.5	NaN	green	0	right	right	GLO	none	close	1	intact	intact	September_2016_fps_avg_aud.mp4	0	0	NaN	NaN	NaN	none	none	NaN	0	0
410	2	57	1	self	1.5	NaN	green	0	right	right	GLO	none	far	1	intact	intact	Jun20_fps_avg_aud.mp4	0	0	NaN	NaN	NaN	none	none	NaN	0	0
410	2	58	1	self	1.5	NaN	blue	0	up	up	GLO	none	close	1	intact	intact	37d023e5-2b94-437c-b04e-88100eb5850b_fps_avg_aud.mp4	0	0	NaN	NaN	NaN	none	none	NaN	0	0
410	2	59	1	self	1.5	NaN	yellow	1	down	down	GLO	none	close	1	intact	intact	September_14_2016_fps_avg_aud.mp4	0	0	NaN	NaN	NaN	none	none	NaN	0	0
410	2	60	1	self	1.5	NaN	red	1	left	left	GLO	none	far	1	intact	intact	Oct1_fps_avg_aud.mp4	0	0	NaN	NaN	NaN	none	none	NaN	0	0
410	2	61	1	self	1.5	NaN	red	1	up	up	GLO	none	far	1	intact	intact	43373659-2842-4fad-950a-4472afef2f38_fps_avg_aud.mp4	0	0	NaN	NaN	NaN	none	none	NaN	0	0
410	2	62	1	self	1.5	NaN	blue	1	left	left	GLO	none	far	1	intact	intact	May19_fps_avg_aud.mp4	0	0	NaN	NaN	NaN	none	none	NaN	0	0
410	2	63	1	self	1.5	NaN	red	0	down	down	GLO	none	far	1	intact	intact	a66e9cf1-4573-4450-a822-0bcc91474968_fps_avg_aud.mp4	0	0	NaN	NaN	NaN	none	none	NaN	0	0
410	2	64	1	self	1.5	NaN	green	0	right	right	GLO	none	far	1	intact	intact	e2244423-2494-4cef-96da-ceaa115b3e8d_fps_avg_aud.mp4	0	0	NaN	NaN	NaN	none	none	NaN	0	0
410	2	65	1	self	1.5	NaN	yellow	1	right	right	GLO	none	far	1	intact	intact	ed9842b1-ccb5-4e6e-8fcb-d81eb3d6f297_fps_avg_aud.mp4	0	0	NaN	NaN	NaN	none	none	NaN	0	0
410	2	66	1	self	1.5	NaN	blue	0	up	up	GLO	none	far	1	intact	intact	1c37d23d-fc2a-4933-8024-0106ebebe6c4_fps_avg_aud.mp4	0	0	NaN	NaN	NaN	none	none	NaN	0	0
410	2	67	1	self	1.5	NaN	blue	1	left	left	GLO	none	close	1	intact	intact	Dec1_fps_avg_aud.mp4	0	0	NaN	NaN	NaN	none	none	NaN	0	0
410	2	68	1	self	1.5	NaN	yellow	0	left	left	GLO	none	far	1	intact	intact	bbadcc83-10bb-4a2d-a28a-1d6b44f33770_fps_avg_aud.mp4	0	0	NaN	NaN	NaN	none	none	NaN	0	0
410	2	69	1	self	1.5	NaN	yellow	0	left	left	GLO	none	far	1	intact	intact	a707cf2a-2929-40a6-a19c-21d84be0dc1e_fps_avg_aud.mp4	0	0	NaN	NaN	NaN	none	none	NaN	0	0
410	2	70	1	self	1.5	NaN	red	0	down	down	GLO	none	far	1	intact	intact	2ad8c2cc-f109-45c5-925b-f1af257730e3_fps_avg_aud.mp4	0	0	NaN	NaN	NaN	none	none	NaN	0	0
410	2	71	1	self	1.5	NaN	blue	1	down	down	GLO	none	far	1	intact	intact	Jul30_fps_avg_aud.mp4	0	0	NaN	NaN	NaN	none	none	NaN	0	0
410	2	72	1	self	1.5	NaN	blue	1	down	down	GLO	none	close	1	intact	intact	October_4_2015_fps_avg_aud.mp4	0	0	NaN	NaN	NaN	none	none	NaN	0	0
410	2	73	1	self	1.5	NaN	yellow	0	left	left	GLO	none	close	1	intact	intact	October_2015_fps_avg_aud.mp4	0	0	NaN	NaN	NaN	none	none	NaN	0	0
410	2	74	1	self	1.5	NaN	green	0	right	right	GLO	none	far	1	intact	intact	Feb25_fps_avg_aud.mp4	0	0	NaN	NaN	NaN	none	none	NaN	0	0
410	2	75	1	self	1.5	NaN	green	1	up	up	GLO	none	close	1	intact	intact	f9a11fba-d584-4a74-ba4f-e5eb4ac62b73_fps_avg_aud.mp4	0	0	NaN	NaN	NaN	none	none	NaN	0	0
410	2	76	1	self	1.5	NaN	red	1	left	left	GLO	none	close	1	intact	intact	May_2016_(1)_fps_avg_aud.mp4	0	0	NaN	NaN	NaN	none	none	NaN	0	0
410	2	77	1	self	1.5	NaN	yellow	1	right	right	GLO	none	far	1	intact	intact	c939d2dd-f401-4cdf-bab0-fe7457cad0a4_fps_avg_aud.mp4	0	0	NaN	NaN	NaN	none	none	NaN	0	0
410	2	78	1	self	1.5	NaN	green	0	right	right	GLO	none	close	1	intact	intact	de8d0a62-04ca-452a-a478-93877cedee98_fps_avg_aud.mp4	0	0	NaN	NaN	NaN	none	none	NaN	0	0
410	2	79	1	self	1.5	NaN	red	0	down	down	GLO	none	close	1	intact	intact	b11b47e5-c9ce-4ff0-9f69-98698858b2d8_fps_avg_aud.mp4	0	0	NaN	NaN	NaN	none	none	NaN	0	0
410	2	80	1	self	1.5	NaN	blue	0	up	up	GLO	none	far	1	intact	intact	Jun17_fps_avg_aud.mp4	0	0	NaN	NaN	NaN	none	none	NaN	0	0
410	2	81	1	self	1.5	NaN	red	0	down	down	GLO	none	far	1	intact	intact	Dec8_fps_avg_aud.mp4	0	0	NaN	NaN	NaN	none	none	NaN	0	0
410	2	82	1	self	1.5	NaN	red	0	down	down	GLO	none	far	1	intact	intact	f86e1967-f74c-492a-93b0-8eac09649762_fps_avg_aud.mp4	0	0	NaN	NaN	NaN	none	none	NaN	0	0
410	2	83	1	self	1.5	NaN	green	1	down	down	GLO	none	far	1	intact	intact	16fe28b7-019b-49e7-9b4b-6b9fba85fe3d_fps_avg_aud.mp4	0	0	NaN	NaN	NaN	none	none	NaN	0	0
410	2	84	1	self	1.5	NaN	green	0	right	right	GLO	none	close	1	intact	intact	a444c8a7-2f60-4193-8052-530d5b35ed4c_fps_avg_aud.mp4	0	0	NaN	NaN	NaN	none	none	NaN	0	0
410	2	85	1	self	1.5	NaN	green	1	left	left	GLO	none	far	1	intact	intact	ea6675d4-3684-48c3-9bd0-c32d38c48c9e_fps_avg_aud.mp4	0	0	NaN	NaN	NaN	none	none	NaN	0	0
410	2	86	1	self	1.5	NaN	green	0	right	right	GLO	none	close	1	intact	intact	942f20a2-a776-400d-9488-0c1647ebd585_fps_avg_aud.mp4	0	0	NaN	NaN	NaN	none	none	NaN	0	0
410	2	87	1	self	1.5	NaN	red	1	left	left	GLO	none	close	1	intact	intact	960000ea-ab44-4258-8824-51f8fdf7a806_fps_avg_aud.mp4	0	0	NaN	NaN	NaN	none	none	NaN	0	0
410	2	88	1	self	1.5	NaN	green	0	right	right	GLO	none	far	1	intact	intact	Apr30_fps_avg_aud.mp4	0	0	NaN	NaN	NaN	none	none	NaN	0	0
410	2	89	1	self	1.5	NaN	green	1	down	down	GLO	none	close	1	intact	intact	e1d4becd-1ca6-41b0-82ab-58d50a368204_fps_avg_aud.mp4	0	0	NaN	NaN	NaN	none	none	NaN	0	0
410	2	90	1	self	1.5	NaN	red	1	left	left	GLO	none	far	1	intact	intact	April_2015_fps_avg_aud.mp4	0	0	NaN	NaN	NaN	none	none	NaN	0	0
410	2	91	1	self	1.5	NaN	yellow	0	left	left	GLO	none	far	1	intact	intact	8b38af47-0b70-4682-ac0e-c7a415e91156_fps_avg_aud.mp4	0	0	NaN	NaN	NaN	none	none	NaN	0	0
410	2	92	1	self	1.5	NaN	green	0	right	right	GLO	none	close	1	intact	intact	Apr4_fps_avg_aud.mp4	0	0	NaN	NaN	NaN	none	none	NaN	0	0
410	2	93	1	self	1.5	NaN	yellow	1	down	down	GLO	none	far	1	intact	intact	Sep19_fps_avg_aud.mp4	0	0	NaN	NaN	NaN	none	none	NaN	0	0
410	3	1	1	auto	0.5	0.51112	blue	0	up	up	GLO	left	far	1	intact	intact	d4f25bdd-9060-452d-8b9a-299b4d79a939_fps_avg_aud.mp4	1	199	2.51473	0.987755	3	up	blue	1	0	0
410	3	2	1	auto	0.5	0.512281	yellow	1	down	down	GLO	right	far	0	intact	none	none	0	0	1.06393	0	1	left	yellow	1	0	0
410	3	3	1	auto	0.5	0.513989	green	0	right	right	GLO	right	far	0	intact	none	none	0	0	0.848222	0	1	right	green	1	0	0
410	3	4	1	auto	0.5	0.51263	yellow	0	left	left	GLO	left	close	1	intact	intact	e67cff3b-48fd-4045-95c8-a92189606742_fps_avg_aud.mp4	1	0	1.58201	0	1	left	yellow	1	0	0
410	3	5	1	auto	0.5	0.51348	yellow	0	left	left	GLO	left	close	1	intact	intact	ea6675d4-3684-48c3-9bd0-c32d38c48c9e_fps_avg_aud.mp4	1	0	0.644543	0	1	left	yellow	1	0	0
410	3	6	1	auto	0.5	0.512169	blue	0	up	up	GLO	left	far	1	intact	intact	7c00c850-e528-473f-895e-ee9be83c7963_fps_avg_aud.mp4	1	0	0.675218	0	1	up	blue	1	0	0
410	3	7	1	auto	0.5	0.512087	green	0	right	right	GLO	right	far	0	intact	none	none	0	0	0.672608	0	1	right	green	1	0	0
410	3	8	1	auto	0.5	0.513423	red	1	left	left	GLO	left	close	1	intact	intact	Aug18_fps_avg_aud.mp4	1	0	1.13897	0	1	down	red	1	0	0
410	3	9	1	auto	0.5	0.51516	yellow	1	right	right	GLO	left	close	1	intact	intact	149f1481-9792-4892-beba-4137601f26a6_fps_avg_aud.mp4	1	0	0.836371	0	1	left	yellow	1	0	0
410	3	10	1	auto	0.5	0.51598	blue	1	right	right	GLO	left	close	1	intact	intact	53f27130-5392-4410-b48f-90a712697cfb_fps_avg_aud.mp4	1	0	0.999054	0	1	up	blue	1	0	0
410	3	11	1	auto	0.5	0.510651	yellow	0	left	left	GLO	left	close	1	intact	intact	d928ad07-fccb-4758-905a-ca2e2f1c06b6_fps_avg_aud.mp4	1	0	1.24853	0	1	left	yellow	1	0	0
410	3	12	1	auto	0.5	0.510075	green	1	up	up	GLO	left	far	0	intact	none	none	0	0	1.24919	0	1	right	green	1	0	0
410	3	13	1	auto	0.5	0.512172	green	1	left	left	GLO	left	close	1	intact	intact	Jan13_fps_avg_aud.mp4	1	0	0.616357	0	1	right	green	1	0	0
410	3	14	1	auto	0.5	0.515725	green	1	up	up	GLO	left	far	1	intact	intact	d1495dc6-3264-40ae-807f-007f3ab4bdee_fps_avg_aud.mp4	1	0	0.571787	0	1	right	green	1	0	0
410	3	15	1	auto	0.5	0.512883	blue	0	up	up	GLO	left	close	0	intact	none	none	0	0	0.748576	0	1	up	blue	1	0	0
410	3	16	1	auto	0.5	0.511558	blue	0	up	up	GLO	right	far	0	intact	none	none	0	0	0.898237	0	1	up	blue	1	0	0
410	3	17	1	auto	0.5	0.513401	blue	0	up	up	GLO	left	far	1	intact	intact	e57a35d6-39b7-4b9c-a4a1-844e0bebd3c1_fps_avg_aud.mp4	1	0	0.480935	0	1	up	blue	1	0	0
410	3	18	1	auto	1.5	1.51163	red	0	down	down	GLO	right	close	1	intact	intact	f1caa1d5-1230-4918-b000-58763883bff3_fps_avg_aud.mp4	1	0	0.908588	0	1	down	red	1	0	0
410	3	19	1	auto	1.5	1.51287	yellow	0	left	left	GLO	right	far	1	intact	intact	801d308b-7fe8-4a7f-8ad6-dafa42c9e3af_fps_avg_aud.mp4	1	0	1.15854	0	1	right	green	0	0	0
410	3	20	1	auto	1.5	1.51375	blue	1	right	right	GLO	right	far	0	intact	none	none	0	0	0.961418	0	1	up	blue	1	0	0
410	3	21	1	auto	1.5	1.51193	yellow	0	left	left	GLO	left	far	1	intact	intact	b70b2fc0-8728-4c47-a0fd-a887a904f1ee_fps_avg_aud.mp4	1	37	0.931569	0.177535	2	left	yellow	1	0	0
410	3	22	1	auto	1.5	1.51558	green	0	right	right	GLO	left	close	1	intact	intact	4db3f410-b7dd-4157-a876-374c50f0a479_fps_avg_aud.mp4	1	0	0.723613	0	1	right	green	1	0	0
410	3	23	1	auto	1.5	1.50833	red	1	left	left	GLO	left	close	1	intact	intact	May_2016_fps_avg_aud.mp4	1	78	1.0994	0.283318	1	down	red	1	0	0
410	3	24	1	auto	1.5	1.51255	green	0	right	right	GLO	right	close	1	intact	intact	e00791ee-f5a4-4315-8214-e183c3e1d2cf_fps_avg_aud.mp4	1	22	0.722909	0.107693	1	right	green	1	0	0
410	3	25	1	auto	1.5	1.51488	yellow	1	right	right	GLO	right	close	1	intact	intact	May_30_2016_fps_avg_aud.mp4	1	41	0.678906	0.194955	1	left	yellow	1	0	0
410	3	26	1	auto	1.5	1.5121	yellow	0	left	left	GLO	left	far	0	intact	none	none	0	0	0.531897	0	1	left	yellow	1	0	0
410	3	27	1	auto	1.5	1.50993	yellow	1	down	down	GLO	right	far	1	intact	intact	483a899a-71a0-49cf-b2ba-f13374d6b0a8_fps_avg_aud.mp4	1	51	0.66152	0.199927	1	left	yellow	1	0	0
410	3	28	1	auto	1.5	1.51676	blue	0	up	up	GLO	left	close	1	intact	intact	11f7e237-860e-4d5b-9743-89fc16a3360b_fps_avg_aud.mp4	1	77	0.854756	0.346166	2	up	blue	1	0	0
410	3	29	1	auto	1.5	1.51544	green	1	down	down	GLO	right	close	1	intact	intact	c3c668bd-3353-4887-b3ff-6d0225f5629c_fps_avg_aud.mp4	1	0	0.655203	0	1	right	green	1	0	0
410	3	30	1	auto	1.5	NaN	green	0	right	right	GLO	none	close	1	intact	intact	5b8d6efa-e1ab-4dc5-b720-51d467e90859_fps_avg_aud.mp4	0	0	NaN	NaN	NaN	none	none	NaN	0	0
410	3	31	1	auto	1.5	NaN	green	0	right	right	GLO	none	far	1	intact	intact	October_8_2016_fps_avg_aud.mp4	0	0	NaN	NaN	NaN	none	none	NaN	0	0
410	3	32	1	auto	1.5	NaN	yellow	1	right	right	GLO	none	close	0	intact	none	none	0	0	NaN	NaN	NaN	none	none	NaN	0	0
410	3	33	1	auto	1.5	NaN	red	0	down	down	GLO	none	close	1	intact	intact	779aa7ea-420b-4390-a149-5f24d3acfbfd_fps_avg_aud.mp4	0	0	NaN	NaN	NaN	none	none	NaN	0	0
410	3	34	1	auto	1.5	NaN	red	1	right	right	GLO	none	close	0	intact	none	none	0	0	NaN	NaN	NaN	none	none	NaN	0	0
410	3	35	1	auto	1.5	NaN	red	0	down	down	GLO	none	close	1	intact	intact	ac2b9dfa-7a4b-40ef-9499-c883a9127ad7_fps_avg_aud.mp4	0	0	NaN	NaN	NaN	none	none	NaN	0	0
410	3	36	1	auto	1.5	NaN	green	0	right	right	GLO	none	close	1	intact	intact	4846a2fb-abed-444f-9d11-1cd53c563089_fps_avg_aud.mp4	0	0	NaN	NaN	NaN	none	none	NaN	0	0
410	3	37	1	auto	1.5	NaN	yellow	0	left	left	GLO	none	close	1	intact	intact	eec24f3a-496f-4cb7-8f48-5bf5530f3e96_fps_avg_aud.mp4	0	0	NaN	NaN	NaN	none	none	NaN	0	0
410	3	38	1	auto	1.5	NaN	green	0	right	right	GLO	none	far	0	intact	none	none	0	0	NaN	NaN	NaN	none	none	NaN	0	0
410	3	39	1	auto	1.5	NaN	yellow	0	left	left	GLO	none	close	0	intact	none	none	0	0	NaN	NaN	NaN	none	none	NaN	0	0
410	3	40	1	auto	1.5	NaN	red	0	down	down	GLO	none	far	1	intact	intact	abff9cfd-d67a-47e2-bc3f-92551e8414e2(1)_fps_avg_aud.mp4	0	0	NaN	NaN	NaN	none	none	NaN	0	0
410	3	41	1	auto	1.5	NaN	yellow	1	up	up	GLO	none	close	0	intact	none	none	0	0	NaN	NaN	NaN	none	none	NaN	0	0
410	3	42	1	auto	1.5	NaN	green	0	right	right	GLO	none	close	0	intact	none	none	0	0	NaN	NaN	NaN	none	none	NaN	0	0
410	3	43	1	auto	1.5	NaN	green	0	right	right	GLO	none	far	1	intact	intact	f86e1967-f74c-492a-93b0-8eac09649762_fps_avg_aud.mp4	0	0	NaN	NaN	NaN	none	none	NaN	0	0
410	3	44	1	auto	1.5	NaN	blue	0	up	up	GLO	none	far	1	intact	intact	240bdf76-9a30-49ea-9534-079281412955_fps_avg_aud.mp4	0	0	NaN	NaN	NaN	none	none	NaN	0	0
410	3	45	1	auto	1.5	NaN	green	0	right	right	GLO	none	close	1	intact	intact	Jun6_fps_avg_aud.mp4	0	0	NaN	NaN	NaN	none	none	NaN	0	0
410	3	46	1	auto	1.5	NaN	blue	0	up	up	GLO	none	far	1	intact	intact	December_2015_(1)_fps_avg_aud.mp4	0	0	NaN	NaN	NaN	none	none	NaN	0	0
410	3	47	1	auto	1.5	NaN	yellow	1	down	down	GLO	none	close	0	intact	none	none	0	0	NaN	NaN	NaN	none	none	NaN	0	0
410	3	48	1	auto	1.5	NaN	blue	0	up	up	GLO	none	far	1	intact	intact	8fc730b2-0fc1-4125-9e0e-c9ed1f9ab58a_fps_avg_aud.mp4	0	0	NaN	NaN	NaN	none	none	NaN	0	0
410	3	49	1	auto	1.5	NaN	blue	0	up	up	GLO	none	far	1	intact	intact	Nov25_fps_avg_aud.mp4	0	0	NaN	NaN	NaN	none	none	NaN	0	0
410	3	50	1	auto	1.5	NaN	green	1	left	left	GLO	none	far	0	intact	none	none	0	0	NaN	NaN	NaN	none	none	NaN	0	0
410	3	51	1	auto	1.5	NaN	red	0	down	down	GLO	none	far	1	intact	intact	5a4ed86a-8ef5-4056-813c-083746f26c03_fps_avg_aud.mp4	0	0	NaN	NaN	NaN	none	none	NaN	0	0
410	3	52	1	auto	1.5	NaN	yellow	1	down	down	GLO	none	far	0	intact	none	none	0	0	NaN	NaN	NaN	none	none	NaN	0	0
410	3	53	1	auto	1.5	NaN	green	0	right	right	GLO	none	close	1	intact	intact	01eb0290-d17b-4697-b87a-733d1ecfc12d_fps_avg_aud.mp4	0	0	NaN	NaN	NaN	none	none	NaN	0	0
410	3	54	1	auto	1.5	NaN	yellow	1	right	right	GLO	none	far	1	intact	intact	July25_fps_avg_aud.mp4	0	0	NaN	NaN	NaN	none	none	NaN	0	0
410	3	55	1	auto	1.5	NaN	yellow	0	left	left	GLO	none	close	1	intact	intact	f9a11fba-d584-4a74-ba4f-e5eb4ac62b73_fps_avg_aud.mp4	0	0	NaN	NaN	NaN	none	none	NaN	0	0
410	3	56	1	auto	1.5	NaN	blue	0	up	up	GLO	none	far	0	intact	none	none	0	0	NaN	NaN	NaN	none	none	NaN	0	0
410	3	57	1	auto	1.5	NaN	yellow	1	down	down	GLO	none	far	0	intact	none	none	0	0	NaN	NaN	NaN	none	none	NaN	0	0
410	3	58	1	auto	1.5	NaN	red	1	left	left	GLO	none	close	1	intact	intact	f22090a0-ec04-4dfd-99ca-7810b9650ec8_fps_avg_aud.mp4	0	0	NaN	NaN	NaN	none	none	NaN	0	0
410	3	59	1	auto	1.5	NaN	blue	0	up	up	GLO	none	close	1	intact	intact	80bae024-90b7-4369-88be-93c1000385ef_fps_avg_aud.mp4	0	0	NaN	NaN	NaN	none	none	NaN	0	0
410	3	60	1	auto	1.5	NaN	red	1	left	left	GLO	none	far	0	intact	none	none	0	0	NaN	NaN	NaN	none	none	NaN	0	0
410	3	61	1	auto	1.5	NaN	red	1	up	up	GLO	none	far	1	intact	intact	Feb13_fps_avg_aud.mp4	0	0	NaN	NaN	NaN	none	none	NaN	0	0
410	3	62	1	auto	1.5	NaN	blue	0	up	up	GLO	none	far	1	intact	intact	108f257a-1892-40f5-b9e3-6eb0557bc08c(1)_fps_avg_aud.mp4	0	0	NaN	NaN	NaN	none	none	NaN	0	0
410	3	63	1	auto	1.5	NaN	blue	0	up	up	GLO	none	far	1	intact	intact	Dec27_fps_avg_aud.mp4	0	0	NaN	NaN	NaN	none	none	NaN	0	0
410	3	64	1	auto	1.5	NaN	red	1	left	left	GLO	none	far	0	intact	none	none	0	0	NaN	NaN	NaN	none	none	NaN	0	0
410	3	65	1	auto	1.5	NaN	blue	0	up	up	GLO	none	far	1	intact	intact	54a93c98-7413-4e40-aca3-12bf7a6220c7_fps_avg_aud.mp4	0	0	NaN	NaN	NaN	none	none	NaN	0	0
410	3	66	1	auto	1.5	NaN	blue	1	right	right	GLO	none	close	1	intact	intact	Apr2_fps_avg_aud.mp4	0	0	NaN	NaN	NaN	none	none	NaN	0	0
410	3	67	1	auto	1.5	NaN	yellow	0	left	left	GLO	none	close	1	intact	intact	Jan19_fps_avg_aud.mp4	0	0	NaN	NaN	NaN	none	none	NaN	0	0
410	3	68	1	auto	1.5	NaN	yellow	0	left	left	GLO	none	close	0	intact	none	none	0	0	NaN	NaN	NaN	none	none	NaN	0	0
410	3	69	1	auto	1.5	NaN	blue	1	down	down	GLO	none	far	1	intact	intact	April_2015_(1)_fps_avg_aud.mp4	0	0	NaN	NaN	NaN	none	none	NaN	0	0
410	3	70	1	auto	1.5	NaN	red	0	down	down	GLO	none	far	0	intact	none	none	0	0	NaN	NaN	NaN	none	none	NaN	0	0
410	3	71	1	auto	1.5	NaN	red	0	down	down	GLO	none	close	0	intact	none	none	0	0	NaN	NaN	NaN	none	none	NaN	0	0
410	3	72	1	auto	1.5	NaN	green	0	right	right	GLO	none	close	1	intact	intact	0f23035e-0077-49bd-b516-950aa27b63b5_fps_avg_aud.mp4	0	0	NaN	NaN	NaN	none	none	NaN	0	0
410	3	73	1	auto	1.5	NaN	blue	0	up	up	GLO	none	far	0	intact	none	none	0	0	NaN	NaN	NaN	none	none	NaN	0	0
410	3	74	1	auto	1.5	NaN	green	1	up	up	GLO	none	close	0	intact	none	none	0	0	NaN	NaN	NaN	none	none	NaN	0	0
410	3	75	1	auto	1.5	NaN	green	0	right	right	GLO	none	far	1	intact	intact	58fa2b05-06d6-4325-b14b-27b0a9645ea5_fps_avg_aud.mp4	0	0	NaN	NaN	NaN	none	none	NaN	0	0
410	3	76	1	auto	1.5	NaN	red	1	up	up	GLO	none	close	1	intact	intact	e8afc4ba-88ff-4bff-928a-27c2c4fe446f_fps_avg_aud.mp4	0	0	NaN	NaN	NaN	none	none	NaN	0	0
410	3	77	1	auto	1.5	NaN	green	1	down	down	GLO	none	close	1	intact	intact	Mar14_fps_avg_aud.mp4	0	0	NaN	NaN	NaN	none	none	NaN	0	0
410	3	78	1	auto	1.5	NaN	yellow	1	right	right	GLO	none	far	1	intact	intact	June_2016_(4)_fps_avg_aud.mp4	0	0	NaN	NaN	NaN	none	none	NaN	0	0
410	3	79	1	auto	1.5	NaN	green	0	right	right	GLO	none	close	1	intact	intact	January_2016_(2)_fps_avg_aud.mp4	0	0	NaN	NaN	NaN	none	none	NaN	0	0
410	3	80	1	auto	1.5	NaN	yellow	1	right	right	GLO	none	far	1	intact	intact	Mar21_fps_avg_aud.mp4	0	0	NaN	NaN	NaN	none	none	NaN	0	0
410	3	81	1	auto	1.5	NaN	green	1	up	up	GLO	none	close	1	intact	intact	520ef496-2bf3-4f3e-8a54-00e0428b126c_fps_avg_aud.mp4	0	0	NaN	NaN	NaN	none	none	NaN	0	0
410	3	82	1	auto	1.5	NaN	blue	1	right	right	GLO	none	far	1	intact	intact	d59b9ee2-e1af-4171-a59e-9daefced695e_fps_avg_aud.mp4	0	0	NaN	NaN	NaN	none	none	NaN	0	0
410	3	83	1	auto	1.5	NaN	yellow	1	down	down	GLO	none	close	1	intact	intact	ae961612-f052-4542-a69c-195487c48d51_fps_avg_aud.mp4	0	0	NaN	NaN	NaN	none	none	NaN	0	0
410	3	84	1	auto	1.5	NaN	red	0	down	down	GLO	none	close	1	intact	intact	639855c9-f7b0-4d31-8ca6-c12b36f03058_fps_avg_aud.mp4	0	0	NaN	NaN	NaN	none	none	NaN	0	0
410	3	85	1	auto	1.5	NaN	red	1	up	up	GLO	none	close	0	intact	none	none	0	0	NaN	NaN	NaN	none	none	NaN	0	0
410	3	86	1	auto	1.5	NaN	red	1	left	left	GLO	none	close	1	intact	intact	Jun21_fps_avg_aud.mp4	0	0	NaN	NaN	NaN	none	none	NaN	0	0
410	3	87	1	auto	1.5	NaN	red	0	down	down	GLO	none	close	1	intact	intact	Feb25_fps_avg_aud.mp4	0	0	NaN	NaN	NaN	none	none	NaN	0	0
410	3	88	1	auto	1.5	NaN	red	1	left	left	GLO	none	far	1	intact	intact	030a135d-605a-42ea-902a-469aeded471a_fps_avg_aud.mp4	0	0	NaN	NaN	NaN	none	none	NaN	0	0
410	3	89	1	auto	1.5	NaN	red	0	down	down	GLO	none	close	1	intact	intact	25a8b4d4-d5c7-4aab-af49-84ebba90c3be_fps_avg_aud.mp4	0	0	NaN	NaN	NaN	none	none	NaN	0	0
410	3	90	1	auto	1.5	NaN	red	1	right	right	GLO	none	close	1	intact	intact	Jan11_fps_avg_aud.mp4	0	0	NaN	NaN	NaN	none	none	NaN	0	0
410	3	91	1	auto	1.5	NaN	yellow	0	left	left	GLO	none	far	1	intact	intact	Nov6_fps_avg_aud.mp4	0	0	NaN	NaN	NaN	none	none	NaN	0	0
410	3	92	1	auto	1.5	NaN	yellow	0	left	left	GLO	none	close	0	intact	none	none	0	0	NaN	NaN	NaN	none	none	NaN	0	0
410	3	93	1	auto	1.5	NaN	red	0	down	down	GLO	none	close	0	intact	none	none	0	0	NaN	NaN	NaN	none	none	NaN	0	0
410	4	1	0	auto	0.5	0.516589	blue	0	up	up	GLO	left	close	1	intact	intact	Mar25_fps_avg_aud.mp4	1	164	3.03757	0.604496	3	up	blue	1	0.001	low
410	4	2	0	auto	0.5	0.511918	yellow	1	down	down	GLO	right	far	0	intact	none	none	0	0	1.296	0	1	left	yellow	1	0.002	low
410	4	3	0	auto	0.5	0.511234	red	0	down	down	GLO	left	close	1	intact	intact	91a36f37-93be-4754-9ddb-f173f29574e1_fps_avg_aud.mp4	1	31	0.841387	0.107252	2	down	red	1	0.003	low
410	4	4	0	auto	0.5	0.512028	red	0	down	down	GLO	left	far	0	intact	none	none	0	0	0.764129	0	1	down	red	1	0.004	low
410	4	5	0	auto	0.5	0.508757	green	0	right	right	GLO	left	far	1	intact	intact	b1dabac3-204f-4571-b892-69eb87e805d0_fps_avg_aud.mp4	1	30	0.753109	0.139154	1	right	green	1	0.005	low
410	4	6	0	auto	0.5	0.509801	red	1	left	left	GLO	right	close	1	intact	intact	33d05c43-ee7c-4877-9419-344c4009c91e_fps_avg_aud.mp4	1	57	0.752811	0.274112	1	down	red	1	0.006	low
410	4	7	0	auto	0.5	0.51579	yellow	1	right	right	GLO	right	far	1	intact	intact	b151d8a6-cbea-4f58-ab0f-6c21bc545c88_fps_avg_aud.mp4	1	105	0.932036	0.37842	2	left	yellow	1	0.007	low
410	4	8	0	auto	0.5	0.511701	blue	0	up	up	GLO	left	far	1	intact	intact	January_2016_(4)_fps_avg_aud.mp4	1	0	0.753524	0	1	up	blue	1	0.008	low
410	4	9	0	auto	0.5	0.512034	blue	0	up	up	GLO	left	far	0	intact	none	none	0	0	0.749605	0	1	up	blue	1	0.009	low
410	4	10	0	auto	0.5	0.513744	green	0	right	right	GLO	right	close	1	intact	intact	ed9842b1-ccb5-4e6e-8fcb-d81eb3d6f297_fps_avg_aud.mp4	1	77	0.781381	0.372147	2	right	green	1	0.01	low
410	4	11	0	auto	0.5	0.510147	yellow	0	left	left	GLO	left	far	1	intact	intact	caf1693c-0eef-47ff-aee9-5348af86759e_fps_avg_aud.mp4	1	78	0.850279	0.285473	2	left	yellow	1	0.011	low
410	4	12	0	auto	0.5	0.513669	green	1	down	down	GLO	right	close	1	intact	intact	beb38bd6-976e-468f-9f23-b6b41f12ce11_fps_avg_aud.mp4	1	144	1.58006	0.536564	3	right	green	1	0.012	low
410	4	13	0	auto	0.5	0.511348	blue	0	up	up	GLO	right	close	0	intact	none	none	0	0	1.34818	0	1	up	blue	1	0.013	low
410	4	14	0	auto	0.5	0.512092	yellow	0	left	left	GLO	right	close	1	intact	intact	September_2016_(3)_fps_avg_aud.mp4	1	212	3.78694	0.863089	3	left	yellow	1	0.014	low
410	4	15	0	auto	0.5	0.509366	blue	1	left	left	GLO	right	far	0	intact	none	none	0	0	2.99413	0	1	up	blue	1	0.015	low
410	4	16	0	auto	0.5	0.511683	red	0	down	down	GLO	right	far	1	intact	intact	f0c0b40e-f75d-4798-8deb-2b993faeea9f_fps_avg_aud.mp4	1	50	1.1489	0.221003	2	down	red	1	0.016	low
410	4	17	0	auto	0.5	0.510572	blue	0	up	up	GLO	right	close	0	intact	none	none	0	0	0.9965	0	1	up	blue	1	0.017	low
410	4	18	0	auto	0.5	0.513208	red	0	down	down	GLO	left	close	0	intact	none	none	0	0	1.08181	0	1	down	red	1	0.018	low
410	4	19	0	auto	0.5	0.509386	red	0	down	down	GLO	left	far	0	intact	none	none	0	0	0.832552	0	1	down	red	1	0.019	low
410	4	20	0	auto	0.5	0.511156	yellow	1	up	up	GLO	left	far	1	intact	intact	e3992607-d25b-430c-bd18-12cb4a6d1b28_fps_avg_aud.mp4	1	156	1.83096	0.639524	2	left	yellow	1	0.02	low
410	4	21	0	auto	0.5	0.512662	blue	0	up	up	GLO	left	close	0	intact	none	none	0	0	1.51436	0	1	up	blue	1	0.021	low
410	4	22	0	auto	0.5	0.511393	blue	0	up	up	GLO	right	far	0	intact	none	none	0	0	0.798386	0	1	up	blue	1	0.022	low
410	4	23	0	auto	0.5	0.51062	blue	0	up	up	GLO	left	far	0	intact	none	none	0	0	0.749047	0	1	up	blue	1	0.023	low
410	4	24	0	auto	0.5	0.513318	yellow	0	left	left	GLO	right	close	0	intact	none	none	0	0	0.741508	0	1	left	yellow	1	0.024	low
410	4	25	0	auto	0.5	0.511718	green	0	right	right	GLO	left	close	0	intact	none	none	0	0	0.762167	0	1	right	green	1	0.025	low
410	4	26	0	auto	0.5	0.514013	blue	0	up	up	GLO	right	far	0	intact	none	none	0	0	1.79894	0	1	up	blue	1	0.026	low
410	4	27	0	auto	0.5	0.512897	yellow	1	up	up	GLO	right	close	1	intact	intact	942f20a2-a776-400d-9488-0c1647ebd585_fps_avg_aud.mp4	1	76	0.801921	0.279366	2	left	yellow	1	0.027	low
410	4	28	0	auto	0.5	0.509805	blue	0	up	up	GLO	right	far	1	intact	intact	533b0238-357b-409c-8d86-25285970eb98_fps_avg_aud.mp4	1	103	0.747482	0.373222	1	up	blue	1	0.028	low
410	4	29	0	auto	0.5	0.509286	green	0	right	right	GLO	right	far	0	intact	none	none	0	0	0.715055	0	1	right	green	1	0.029	low
410	4	30	0	auto	0.5	0.511565	green	0	right	right	GLO	left	close	1	intact	intact	March25_2016_fps_avg_aud.mp4	1	29	0.62626	0.143827	1	right	green	1	0.03	low
410	4	31	0	auto	0.5	0.514288	green	1	down	down	GLO	right	far	1	intact	intact	Apr1_fps_avg_aud.mp4	1	68	0.664384	0.255196	2	right	green	1	0.031	low
410	4	32	0	auto	0.5	0.512109	green	0	right	right	GLO	right	close	1	intact	intact	0634b486-cb5f-4c95-88ac-759458166474_fps_avg_aud.mp4	1	53	0.646244	0.210357	2	right	green	1	0.032	low
410	4	33	0	auto	0.5	0.513163	red	0	down	down	GLO	left	close	0	intact	none	none	0	0	0.731387	0	1	down	red	1	0.033	low
410	4	34	0	auto	0.5	0.512561	yellow	0	left	left	GLO	left	close	0	intact	none	none	0	0	0.780281	0	1	left	yellow	1	0.034	low
410	4	35	0	auto	0.5	0.511512	green	1	down	down	GLO	right	close	1	intact	intact	Apr13_fps_avg_aud.mp4	1	105	0.882845	0.409723	1	right	green	1	0.035	low
410	4	36	0	auto	0.5	NaN	green	1	left	left	GLO	none	close	1	intact	intact	705c0056-c7dd-4090-a27e-8956e33cb4b0_fps_avg_aud.mp4	0	0	NaN	NaN	NaN	none	none	NaN	0.035	low
410	4	37	0	auto	0.5	NaN	blue	0	up	up	GLO	none	close	0	intact	none	none	0	0	NaN	NaN	NaN	none	none	NaN	0.035	low
410	4	38	0	auto	0.5	NaN	blue	1	down	down	GLO	none	far	1	intact	intact	342c3db7-0e7e-4cf9-b04c-0d7bba48d8bb_fps_avg_aud.mp4	0	0	NaN	NaN	NaN	none	none	NaN	0.035	low
410	4	39	0	auto	0.5	NaN	red	0	down	down	GLO	none	far	1	intact	intact	0f23035e-0077-49bd-b516-950aa27b63b5_fps_avg_aud.mp4	0	0	NaN	NaN	NaN	none	none	NaN	0.035	low
410	4	40	0	auto	0.5	NaN	green	0	right	right	GLO	none	close	1	intact	intact	d021cb9c-36bf-48fb-9474-23511a956f6a_fps_avg_aud.mp4	0	0	NaN	NaN	NaN	none	none	NaN	0.035	low
410	4	41	0	auto	0.5	NaN	green	0	right	right	GLO	none	far	1	intact	intact	May10_fps_avg_aud.mp4	0	0	NaN	NaN	NaN	none	none	NaN	0.035	low
410	4	42	0	auto	0.5	NaN	green	1	up	up	GLO	none	far	1	intact	intact	326ee18c-0cd5-4c39-ac0f-082f53449aa4_fps_avg_aud.mp4	0	0	NaN	NaN	NaN	none	none	NaN	0.035	low
410	4	43	0	auto	0.5	NaN	red	0	down	down	GLO	none	far	0	intact	none	none	0	0	NaN	NaN	NaN	none	none	NaN	0.035	low
410	4	44	0	auto	0.5	NaN	yellow	0	left	left	GLO	none	close	0	intact	none	none	0	0	NaN	NaN	NaN	none	none	NaN	0.035	low
410	4	45	0	auto	0.5	NaN	green	1	up	up	GLO	none	far	0	intact	none	none	0	0	NaN	NaN	NaN	none	none	NaN	0.035	low
410	4	46	0	auto	0.5	NaN	yellow	0	left	left	GLO	none	close	1	intact	intact	Feb25_fps_avg_aud.mp4	0	0	NaN	NaN	NaN	none	none	NaN	0.035	low
410	4	47	0	auto	0.5	NaN	green	1	down	down	GLO	none	close	1	intact	intact	f252571c-093b-4ade-9187-cd198d1e3eb0_fps_avg_aud.mp4	0	0	NaN	NaN	NaN	none	none	NaN	0.035	low
410	4	48	0	auto	0.5	NaN	red	1	left	left	GLO	none	far	1	intact	intact	d19912fa-a840-4a29-b318-5be5c947f24f_fps_avg_aud.mp4	0	0	NaN	NaN	NaN	none	none	NaN	0.035	low
410	4	49	0	auto	0.5	NaN	red	0	down	down	GLO	none	close	1	intact	intact	deff750b-b4a4-440e-a47d-eb4c56f93a9d_fps_avg_aud.mp4	0	0	NaN	NaN	NaN	none	none	NaN	0.035	low
410	4	50	0	auto	0.5	NaN	blue	1	left	left	GLO	none	far	1	intact	intact	Jun8_fps_avg_aud.mp4	0	0	NaN	NaN	NaN	none	none	NaN	0.035	low
410	4	51	0	auto	0.5	NaN	blue	0	up	up	GLO	none	far	1	intact	intact	Jan19_fps_avg_aud.mp4	0	0	NaN	NaN	NaN	none	none	NaN	0.035	low
410	4	52	0	auto	0.5	NaN	yellow	0	left	left	GLO	none	close	1	intact	intact	October_4_2015_fps_avg_aud.mp4	0	0	NaN	NaN	NaN	none	none	NaN	0.035	low
410	4	53	0	auto	0.5	NaN	green	0	right	right	GLO	none	close	1	intact	intact	58fa2b05-06d6-4325-b14b-27b0a9645ea5_fps_avg_aud.mp4	0	0	NaN	NaN	NaN	none	none	NaN	0.035	low
410	4	54	0	auto	0.5	NaN	green	0	right	right	GLO	none	close	1	intact	intact	July4_fps_avg_aud.mp4	0	0	NaN	NaN	NaN	none	none	NaN	0.035	low
410	4	55	0	auto	0.5	NaN	red	1	left	left	GLO	none	far	1	intact	intact	a36f5f1c-60eb-41c0-8ed1-09a4e01342bc_fps_avg_aud.mp4	0	0	NaN	NaN	NaN	none	none	NaN	0.035	low
410	4	56	0	auto	0.5	NaN	green	0	right	right	GLO	none	close	1	intact	intact	may_25_2015_fps_avg_aud.mp4	0	0	NaN	NaN	NaN	none	none	NaN	0.035	low
410	4	57	0	auto	0.5	NaN	green	0	right	right	GLO	none	close	0	intact	none	none	0	0	NaN	NaN	NaN	none	none	NaN	0.035	low
410	4	58	0	auto	0.5	NaN	blue	0	up	up	GLO	none	far	0	intact	none	none	0	0	NaN	NaN	NaN	none	none	NaN	0.035	low
410	4	59	0	auto	0.5	NaN	green	1	up	up	GLO	none	far	1	intact	intact	5f534c39-dfe8-4a8d-a678-c406bcf9154d_fps_avg_aud.mp4	0	0	NaN	NaN	NaN	none	none	NaN	0.035	low
410	4	60	0	auto	0.5	NaN	red	1	up	up	GLO	none	close	1	intact	intact	6247a4ca-9a6e-47c1-91f4-5a9925a1c125_fps_avg_aud.mp4	0	0	NaN	NaN	NaN	none	none	NaN	0.035	low
410	4	61	0	auto	0.5	NaN	green	1	left	left	GLO	none	close	0	intact	none	none	0	0	NaN	NaN	NaN	none	none	NaN	0.035	low
410	4	62	0	auto	0.5	NaN	red	1	left	left	GLO	none	far	0	intact	none	none	0	0	NaN	NaN	NaN	none	none	NaN	0.035	low
410	4	63	0	auto	0.5	NaN	red	0	down	down	GLO	none	far	1	intact	intact	fd4a95d6-f171-4c0b-8de2-e9ca909c9eff_fps_avg_aud.mp4	0	0	NaN	NaN	NaN	none	none	NaN	0.035	low
410	4	64	0	auto	0.5	NaN	yellow	0	left	left	GLO	none	close	1	intact	intact	e1d4becd-1ca6-41b0-82ab-58d50a368204_fps_avg_aud.mp4	0	0	NaN	NaN	NaN	none	none	NaN	0.035	low
410	4	65	0	auto	0.5	NaN	yellow	0	left	left	GLO	none	far	1	intact	intact	May15_fps_avg_aud.mp4	0	0	NaN	NaN	NaN	none	none	NaN	0.035	low
410	4	66	0	auto	0.5	NaN	blue	1	down	down	GLO	none	close	1	intact	intact	june_18_2015_fps_avg_aud.mp4	0	0	NaN	NaN	NaN	none	none	NaN	0.035	low
410	4	67	0	auto	0.5	NaN	blue	1	left	left	GLO	none	far	1	intact	intact	July21_fps_avg_aud.mp4	0	0	NaN	NaN	NaN	none	none	NaN	0.035	low
410	4	68	0	auto	0.5	NaN	blue	1	right	right	GLO	none	far	1	intact	intact	b442d744-edd6-478c-94f1-be50e05465cc_fps_avg_aud.mp4	0	0	NaN	NaN	NaN	none	none	NaN	0.035	low
410	4	69	0	auto	0.5	NaN	red	1	up	up	GLO	none	close	1	intact	intact	647890e0-5689-43cf-86ab-b37e61076130_fps_avg_aud.mp4	0	0	NaN	NaN	NaN	none	none	NaN	0.035	low
410	4	70	0	auto	0.5	NaN	yellow	0	left	left	GLO	none	close	0	intact	none	none	0	0	NaN	NaN	NaN	none	none	NaN	0.035	low
410	4	71	0	auto	0.5	NaN	green	1	left	left	GLO	none	far	0	intact	none	none	0	0	NaN	NaN	NaN	none	none	NaN	0.035	low
410	4	72	0	auto	0.5	NaN	yellow	1	down	down	GLO	none	far	1	intact	intact	33a33f4c-72c6-457d-828e-a576d3e3a8e3_fps_avg_aud.mp4	0	0	NaN	NaN	NaN	none	none	NaN	0.035	low
410	4	73	0	auto	0.5	NaN	green	1	left	left	GLO	none	close	0	intact	none	none	0	0	NaN	NaN	NaN	none	none	NaN	0.035	low
410	4	74	0	auto	0.5	NaN	green	1	down	down	GLO	none	close	1	intact	intact	e066eed1-ff30-4572-8429-cde771b0bc43_fps_avg_aud.mp4	0	0	NaN	NaN	NaN	none	none	NaN	0.035	low
410	4	75	0	auto	0.5	NaN	yellow	0	left	left	GLO	none	close	0	intact	none	none	0	0	NaN	NaN	NaN	none	none	NaN	0.035	low
410	4	76	0	auto	0.5	NaN	green	1	down	down	GLO	none	close	1	intact	intact	4f243f72-5a08-4b19-aa43-2448c9f0545d_fps_avg_aud.mp4	0	0	NaN	NaN	NaN	none	none	NaN	0.035	low
410	4	77	0	auto	0.5	NaN	blue	0	up	up	GLO	none	far	1	intact	intact	Dec26_fps_avg_aud.mp4	0	0	NaN	NaN	NaN	none	none	NaN	0.035	low
410	4	78	0	auto	0.5	NaN	yellow	0	left	left	GLO	none	close	1	intact	intact	01790276-7d56-4063-9522-da49270e2a6b_fps_avg_aud.mp4	0	0	NaN	NaN	NaN	none	none	NaN	0.035	low
410	4	79	0	auto	0.5	NaN	blue	0	up	up	GLO	none	far	1	intact	intact	76b50970-7143-4993-96e1-54ee18b8278e_fps_avg_aud.mp4	0	0	NaN	NaN	NaN	none	none	NaN	0.035	low
410	4	80	0	auto	0.5	NaN	red	1	left	left	GLO	none	close	1	intact	intact	September_2016_fps_avg_aud.mp4	0	0	NaN	NaN	NaN	none	none	NaN	0.035	low
410	4	81	0	auto	0.5	NaN	blue	0	up	up	GLO	none	close	1	intact	intact	cad0ae4f-8fd8-463e-9880-f0c1f9462bac_fps_avg_aud.mp4	0	0	NaN	NaN	NaN	none	none	NaN	0.035	low
410	4	82	0	auto	0.5	NaN	blue	0	up	up	GLO	none	far	0	intact	none	none	0	0	NaN	NaN	NaN	none	none	NaN	0.035	low
410	4	83	0	auto	0.5	NaN	yellow	1	up	up	GLO	none	close	0	intact	none	none	0	0	NaN	NaN	NaN	none	none	NaN	0.035	low
410	4	84	0	auto	0.5	NaN	yellow	1	down	down	GLO	none	close	1	intact	intact	5a4ed86a-8ef5-4056-813c-083746f26c03_fps_avg_aud.mp4	0	0	NaN	NaN	NaN	none	none	NaN	0.035	low
410	4	85	0	auto	0.5	NaN	green	0	right	right	GLO	none	far	1	intact	intact	Jun6_fps_avg_aud.mp4	0	0	NaN	NaN	NaN	none	none	NaN	0.035	low
410	4	86	0	auto	0.5	NaN	blue	1	right	right	GLO	none	close	1	intact	intact	Apr19_fps_avg_aud.mp4	0	0	NaN	NaN	NaN	none	none	NaN	0.035	low
410	4	87	0	auto	0.5	NaN	red	1	up	up	GLO	none	close	1	intact	intact	cef9c179-f64d-4543-875f-6808da2329b6_fps_avg_aud.mp4	0	0	NaN	NaN	NaN	none	none	NaN	0.035	low
410	4	88	0	auto	0.5	NaN	red	0	down	down	GLO	none	close	0	intact	none	none	0	0	NaN	NaN	NaN	none	none	NaN	0.035	low
410	4	89	0	auto	0.5	NaN	yellow	1	right	right	GLO	none	close	0	intact	none	none	0	0	NaN	NaN	NaN	none	none	NaN	0.035	low
410	4	90	0	auto	0.5	NaN	blue	0	up	up	GLO	none	far	1	intact	intact	f88c90ff-41f4-4220-a305-426fa931932f_fps_avg_aud.mp4	0	0	NaN	NaN	NaN	none	none	NaN	0.035	low
410	4	91	0	auto	0.5	NaN	red	0	down	down	GLO	none	far	1	intact	intact	de0e4ce1-0f87-4077-b69c-578049fe4691_fps_avg_aud.mp4	0	0	NaN	NaN	NaN	none	none	NaN	0.035	low
410	4	92	0	auto	0.5	NaN	green	1	left	left	GLO	none	close	1	intact	intact	058bdf98-bb64-4851-92f5-ffad71866ee8_fps_avg_aud.mp4	0	0	NaN	NaN	NaN	none	none	NaN	0.035	low
410	4	93	0	auto	0.5	NaN	green	1	up	up	GLO	none	close	0	intact	none	none	0	0	NaN	NaN	NaN	none	none	NaN	0.035	low
410	5	1	0	auto	0.5	0.515514	yellow	0	left	left	GLO	left	close	0	intact	none	none	0	0	1.61652	0	1	left	yellow	1	0.045	high
410	5	2	0	auto	0.5	0.511702	yellow	1	right	right	GLO	left	close	0	intact	none	none	0	0	1.13014	0	1	left	yellow	1	0.055	high
410	5	3	0	auto	0.5	0.513866	red	0	down	down	GLO	left	far	1	intact	intact	591cd28e-3b15-449a-b19f-e2e7cabcd7ba_fps_avg_aud.mp4	1	75	1.27062	0.39317	2	down	red	1	0.065	high
410	5	4	0	auto	0.5	0.512624	green	1	up	up	GLO	right	far	0	intact	none	none	0	0	0.932236	0	1	up	blue	0	0.055	high
410	5	5	0	auto	0.5	0.511255	yellow	1	up	up	GLO	right	close	0	intact	none	none	0	0	1.47731	0	1	left	yellow	1	0.065	high
410	5	6	0	auto	0.5	0.514111	blue	0	up	up	GLO	left	far	0	intact	none	none	0	0	0.930408	0	1	up	blue	1	0.075	high
410	5	7	0	auto	0.5	0.510762	green	0	right	right	GLO	right	close	0	intact	none	none	0	0	0.931005	0	1	right	green	1	0.085	high
410	5	8	0	auto	0.5	0.511037	yellow	0	left	left	GLO	right	close	1	intact	intact	june_18_2015_fps_avg_aud.mp4	1	89	0.797531	0.381487	2	left	yellow	1	0.095	high
410	5	9	0	auto	0.5	0.513051	green	0	right	right	GLO	left	close	1	intact	intact	7fe27e44-a1be-4335-89c2-e510e239df64_fps_avg_aud.mp4	1	59	0.714685	0.259588	2	right	green	1	0.105	high
410	5	10	0	auto	0.5	0.514564	red	1	up	up	GLO	right	close	0	intact	none	none	0	0	0.930752	0	1	down	red	1	0.115	high
410	5	11	0	auto	0.5	0.513299	blue	0	up	up	GLO	right	far	1	intact	intact	Dec21_fps_avg_aud.mp4	1	68	1.11453	0.293063	2	up	blue	1	0.125	high
410	5	12	0	auto	0.5	0.511427	red	0	down	down	GLO	right	far	1	intact	intact	ab1e6c91-a115-4b2d-8609-b4e2233254d6_fps_avg_aud.mp4	1	101	0.781308	0.402775	2	down	red	1	0.135	high
410	5	13	0	auto	0.5	0.510462	yellow	1	right	right	GLO	right	far	1	intact	intact	520ef496-2bf3-4f3e-8a54-00e0428b126c_fps_avg_aud.mp4	1	66	0.807107	0.319111	2	left	yellow	1	0.145	high
410	5	14	0	auto	0.5	0.513328	green	0	right	right	GLO	right	close	1	intact	intact	Jnauary_2016_fps_avg_aud.mp4	1	114	0.88446	0.452599	2	right	green	1	0.155	high
410	5	15	0	auto	0.5	0.512114	yellow	1	down	down	GLO	left	far	1	intact	intact	Jun6_fps_avg_aud.mp4	1	115	1.73208	0.485314	2	left	yellow	1	0.165	high
410	5	16	0	auto	0.5	0.512898	red	0	down	down	GLO	left	far	0	intact	none	none	0	0	0.824025	0	1	down	red	1	0.175	high
410	5	17	0	auto	0.5	0.512797	yellow	0	left	left	GLO	right	far	1	intact	intact	b502b8fe-bf35-4777-bc2b-b5e93b1b3223_fps_avg_aud.mp4	1	178	1.13839	0.823685	1	left	yellow	1	0.185	high
410	5	18	0	auto	0.5	0.511204	blue	0	up	up	GLO	right	far	1	intact	intact	4846a2fb-abed-444f-9d11-1cd53c563089_fps_avg_aud.mp4	1	254	3.412	1.14217	4	up	blue	1	0.195	high
410	5	19	0	auto	0.5	0.511684	green	0	right	right	GLO	left	close	1	intact	intact	de0e4ce1-0f87-4077-b69c-578049fe4691_fps_avg_aud.mp4	1	119	0.897948	0.471317	2	right	green	1	0.205	high
410	5	20	0	auto	0.5	0.512304	yellow	0	left	left	GLO	left	close	0	intact	none	none	0	0	0.880603	0	1	left	yellow	1	0.215	high
410	5	21	0	auto	0.5	0.513046	blue	0	up	up	GLO	left	far	1	intact	intact	5c88b1ee-81ac-4658-85d2-80068b2841d0_fps_avg_aud.mp4	1	118	0.971012	0.483068	2	up	blue	1	0.225	high
410	5	22	0	auto	0.5	0.511894	blue	1	right	right	GLO	right	close	1	intact	intact	06fe833b-37ac-4f46-b915-fda1c2b107fe_fps_avg_aud.mp4	1	73	0.707146	0.304468	2	up	blue	1	0.235	high
410	5	23	0	auto	0.5	0.512443	green	1	up	up	GLO	left	far	1	intact	intact	ae961612-f052-4542-a69c-195487c48d51_fps_avg_aud.mp4	1	67	0.87833	0.334391	1	right	green	1	0.245	high
410	5	24	0	auto	0.5	0.515043	green	0	right	right	GLO	left	far	1	intact	intact	July3_fps_avg_aud.mp4	1	59	0.820483	0.300663	2	right	green	1	0.255	high
410	5	25	0	auto	0.5	0.512721	yellow	1	down	down	GLO	left	close	1	intact	intact	June_2016_(4)_fps_avg_aud.mp4	1	60	1.04742	0.333275	1	left	yellow	1	0.265	high
410	5	26	0	auto	0.5	0.511464	green	1	left	left	GLO	left	close	0	intact	none	none	0	0	1.21386	0	1	right	green	1	0.275	high
410	5	27	0	auto	0.5	0.509903	yellow	1	right	right	GLO	right	far	0	intact	none	none	0	0	0.990418	0	1	left	yellow	1	0.285	high
410	5	28	0	auto	0.5	0.513832	green	0	right	right	GLO	right	far	1	intact	intact	17bc9968-edac-4234-b3eb-c8487676c442_fps_avg_aud.mp4	1	89	0.881549	0.371088	2	right	green	1	0.295	high
410	5	29	0	auto	0.5	0.511381	red	0	down	down	GLO	left	far	1	intact	intact	november_5_2015_fps_avg_aud.mp4	1	119	0.801739	0.453986	1	down	red	1	0.305	high
410	5	30	0	auto	0.5	0.511735	blue	0	up	up	GLO	right	close	0	intact	none	none	0	0	0.781114	0	1	up	blue	1	0.315	high
410	5	31	0	auto	0.5	0.51038	yellow	1	down	down	GLO	left	far	0	intact	none	none	0	0	1.1808	0	1	left	yellow	1	0.325	high
410	5	32	0	auto	0.5	0.51156	yellow	0	left	left	GLO	right	close	0	intact	none	none	0	0	0.654425	0	1	left	yellow	1	0.335	high
410	5	33	0	auto	0.5	0.513956	red	1	left	left	GLO	right	close	1	intact	intact	October_10_2016_(1)_fps_avg_aud.mp4	1	84	0.805726	0.390521	2	down	red	1	0.345	high
410	5	34	0	auto	0.5	0.513728	green	0	right	right	GLO	left	far	1	intact	intact	Jun24_fps_avg_aud.mp4	1	0	0.836629	0	1	right	green	1	0.355	high
410	5	35	0	auto	0.5	0.511039	green	0	right	right	GLO	left	close	0	intact	none	none	0	0	0.765237	0	1	right	green	1	0.365	high
410	5	36	0	auto	0.5	0.513503	blue	1	left	left	GLO	right	close	1	intact	intact	January_2016_(1)_fps_avg_aud.mp4	1	152	1.2109	0.572975	2	up	blue	1	0.375	high
410	5	37	0	auto	0.5	0.513559	blue	0	up	up	GLO	right	far	1	intact	intact	9e99d645-5200-4298-9c0f-4a18ab570a6d_fps_avg_aud.mp4	1	64	0.780735	0.23753	2	up	blue	1	0.385	high
410	5	38	0	auto	0.5	NaN	yellow	1	right	right	GLO	none	close	0	intact	none	none	0	0	NaN	NaN	NaN	none	none	NaN	0.385	high
410	5	39	0	auto	0.5	NaN	blue	0	up	up	GLO	none	close	1	intact	intact	705c0056-c7dd-4090-a27e-8956e33cb4b0_fps_avg_aud.mp4	0	0	NaN	NaN	NaN	none	none	NaN	0.385	high
410	5	40	0	auto	0.5	NaN	green	1	up	up	GLO	none	far	1	intact	intact	July_2016_fps_avg_aud.mp4	0	0	NaN	NaN	NaN	none	none	NaN	0.385	high
410	5	41	0	auto	0.5	NaN	red	1	up	up	GLO	none	far	1	intact	intact	June_112016_fps_avg_aud.mp4	0	0	NaN	NaN	NaN	none	none	NaN	0.385	high
410	5	42	0	auto	0.5	NaN	green	1	up	up	GLO	none	close	0	intact	none	none	0	0	NaN	NaN	NaN	none	none	NaN	0.385	high
410	5	43	0	auto	0.5	NaN	red	0	down	down	GLO	none	far	1	intact	intact	98afb848-1bd2-46a6-89c7-32d60d6d1855_fps_avg_aud.mp4	0	0	NaN	NaN	NaN	none	none	NaN	0.385	high
410	5	44	0	auto	0.5	NaN	green	1	down	down	GLO	none	close	0	intact	none	none	0	0	NaN	NaN	NaN	none	none	NaN	0.385	high
410	5	45	0	auto	0.5	NaN	red	1	right	right	GLO	none	far	0	intact	none	none	0	0	NaN	NaN	NaN	none	none	NaN	0.385	high
410	5	46	0	auto	0.5	NaN	red	0	down	down	GLO	none	close	1	intact	intact	cc0b25a9-3d1b-4c67-b1c5-5f27d60e59cb_fps_avg_aud.mp4	0	0	NaN	NaN	NaN	none	none	NaN	0.385	high
410	5	47	0	auto	0.5	NaN	blue	0	up	up	GLO	none	close	1	intact	intact	Aug30_fps_avg_aud.mp4	0	0	NaN	NaN	NaN	none	none	NaN	0.385	high
410	5	48	0	auto	0.5	NaN	red	0	down	down	GLO	none	far	0	intact	none	none	0	0	NaN	NaN	NaN	none	none	NaN	0.385	high
410	5	49	0	auto	0.5	NaN	green	0	right	right	GLO	none	far	1	intact	intact	de8d0a62-04ca-452a-a478-93877cedee98_fps_avg_aud.mp4	0	0	NaN	NaN	NaN	none	none	NaN	0.385	high
410	5	50	0	auto	0.5	NaN	red	0	down	down	GLO	none	close	1	intact	intact	a707cf2a-2929-40a6-a19c-21d84be0dc1e_fps_avg_aud.mp4	0	0	NaN	NaN	NaN	none	none	NaN	0.385	high
410	5	51	0	auto	0.5	NaN	red	1	left	left	GLO	none	far	1	intact	intact	02831e99-5ac8-4fc5-9e76-9a04224fb33e_fps_avg_aud.mp4	0	0	NaN	NaN	NaN	none	none	NaN	0.385	high
410	5	52	0	auto	0.5	NaN	red	0	down	down	GLO	none	far	1	intact	intact	f86e1967-f74c-492a-93b0-8eac09649762_fps_avg_aud.mp4	0	0	NaN	NaN	NaN	none	none	NaN	0.385	high
410	5	53	0	auto	0.5	NaN	green	0	right	right	GLO	none	far	1	intact	intact	54a93c98-7413-4e40-aca3-12bf7a6220c7_fps_avg_aud.mp4	0	0	NaN	NaN	NaN	none	none	NaN	0.385	high
410	5	54	0	auto	0.5	NaN	red	1	left	left	GLO	none	close	1	intact	intact	089179b5-68cb-4167-89fa-52f69549f728_fps_avg_aud.mp4	0	0	NaN	NaN	NaN	none	none	NaN	0.385	high
410	5	55	0	auto	0.5	NaN	red	1	left	left	GLO	none	far	1	intact	intact	b1ade3a7-f9fd-4229-8a80-df334c184531_fps_avg_aud.mp4	0	0	NaN	NaN	NaN	none	none	NaN	0.385	high
410	5	56	0	auto	0.5	NaN	red	1	left	left	GLO	none	close	1	intact	intact	7b9f55fa-3ddf-4c84-bb13-2413d53cbf75_fps_avg_aud.mp4	0	0	NaN	NaN	NaN	none	none	NaN	0.385	high
410	5	57	0	auto	0.5	NaN	yellow	0	left	left	GLO	none	close	0	intact	none	none	0	0	NaN	NaN	NaN	none	none	NaN	0.385	high
410	5	58	0	auto	0.5	NaN	red	0	down	down	GLO	none	close	1	intact	intact	Feb11_fps_avg_aud.mp4	0	0	NaN	NaN	NaN	none	none	NaN	0.385	high
410	5	59	0	auto	0.5	NaN	blue	0	up	up	GLO	none	close	1	intact	intact	fdcb9b5f-28c7-4da4-867c-57e1763a716c_fps_avg_aud.mp4	0	0	NaN	NaN	NaN	none	none	NaN	0.385	high
410	5	60	0	auto	0.5	NaN	blue	1	down	down	GLO	none	far	0	intact	none	none	0	0	NaN	NaN	NaN	none	none	NaN	0.385	high
410	5	61	0	auto	0.5	NaN	red	0	down	down	GLO	none	far	1	intact	intact	0ee64e11-96b9-4476-a12c-a99a4b58a965_fps_avg_aud.mp4	0	0	NaN	NaN	NaN	none	none	NaN	0.385	high
410	5	62	0	auto	0.5	NaN	blue	0	up	up	GLO	none	far	1	intact	intact	April_2015_(1)_fps_avg_aud.mp4	0	0	NaN	NaN	NaN	none	none	NaN	0.385	high
410	5	63	0	auto	0.5	NaN	red	0	down	down	GLO	none	close	1	intact	intact	Mar14_fps_avg_aud.mp4	0	0	NaN	NaN	NaN	none	none	NaN	0.385	high
410	5	64	0	auto	0.5	NaN	yellow	0	left	left	GLO	none	far	1	intact	intact	10969b38-242c-4207-88e8-6564613d4d88(1)_fps_avg_aud.mp4	0	0	NaN	NaN	NaN	none	none	NaN	0.385	high
410	5	65	0	auto	0.5	NaN	blue	1	down	down	GLO	none	close	1	intact	intact	August_2015_fps_avg_aud.mp4	0	0	NaN	NaN	NaN	none	none	NaN	0.385	high
410	5	66	0	auto	0.5	NaN	blue	0	up	up	GLO	none	far	0	intact	none	none	0	0	NaN	NaN	NaN	none	none	NaN	0.385	high
410	5	67	0	auto	0.5	NaN	blue	0	up	up	GLO	none	far	1	intact	intact	b5bcd3a2-267e-4413-b730-c3121b8457ab_fps_avg_aud.mp4	0	0	NaN	NaN	NaN	none	none	NaN	0.385	high
410	5	68	0	auto	0.5	NaN	blue	1	down	down	GLO	none	far	0	intact	none	none	0	0	NaN	NaN	NaN	none	none	NaN	0.385	high
410	5	69	0	auto	0.5	NaN	blue	0	up	up	GLO	none	far	1	intact	intact	e1d4becd-1ca6-41b0-82ab-58d50a368204_fps_avg_aud.mp4	0	0	NaN	NaN	NaN	none	none	NaN	0.385	high
410	5	70	0	auto	0.5	NaN	blue	0	up	up	GLO	none	far	1	intact	intact	b03a76d5-df04-4f1c-a621-096b7428dc43_fps_avg_aud.mp4	0	0	NaN	NaN	NaN	none	none	NaN	0.385	high
410	5	71	0	auto	0.5	NaN	green	0	right	right	GLO	none	close	1	intact	intact	f001cded-b985-4905-a6ac-c1793ff8fab2_fps_avg_aud.mp4	0	0	NaN	NaN	NaN	none	none	NaN	0.385	high
410	5	72	0	auto	0.5	NaN	red	1	right	right	GLO	none	close	0	intact	none	none	0	0	NaN	NaN	NaN	none	none	NaN	0.385	high
410	5	73	0	auto	0.5	NaN	green	1	left	left	GLO	none	far	1	intact	intact	Feb29_fps_avg_aud.mp4	0	0	NaN	NaN	NaN	none	none	NaN	0.385	high
410	5	74	0	auto	0.5	NaN	red	1	left	left	GLO	none	close	1	intact	intact	Mar4_fps_avg_aud.mp4	0	0	NaN	NaN	NaN	none	none	NaN	0.385	high
410	5	75	0	auto	0.5	NaN	red	0	down	down	GLO	none	far	1	intact	intact	May11_fps_avg_aud.mp4	0	0	NaN	NaN	NaN	none	none	NaN	0.385	high
410	5	76	0	auto	0.5	NaN	green	0	right	right	GLO	none	far	0	intact	none	none	0	0	NaN	NaN	NaN	none	none	NaN	0.385	high
410	5	77	0	auto	0.5	NaN	red	0	down	down	GLO	none	far	1	intact	intact	5901a51f-f684-46c5-8a4f-abc4c05199d0_fps_avg_aud.mp4	0	0	NaN	NaN	NaN	none	none	NaN	0.385	high
410	5	78	0	auto	0.5	NaN	blue	1	left	left	GLO	none	far	1	intact	intact	august_15_2016_fps_avg_aud.mp4	0	0	NaN	NaN	NaN	none	none	NaN	0.385	high
410	5	79	0	auto	0.5	NaN	yellow	1	down	down	GLO	none	far	0	intact	none	none	0	0	NaN	NaN	NaN	none	none	NaN	0.385	high
410	5	80	0	auto	0.5	NaN	red	0	down	down	GLO	none	close	0	intact	none	none	0	0	NaN	NaN	NaN	none	none	NaN	0.385	high
410	5	81	0	auto	0.5	NaN	yellow	0	left	left	GLO	none	far	1	intact	intact	8e8c5e28-7fba-491b-88f9-891e8e26ddbd_fps_avg_aud.mp4	0	0	NaN	NaN	NaN	none	none	NaN	0.385	high
410	5	82	0	auto	0.5	NaN	yellow	0	left	left	GLO	none	close	0	intact	none	none	0	0	NaN	NaN	NaN	none	none	NaN	0.385	high
410	5	83	0	auto	0.5	NaN	red	0	down	down	GLO	none	far	1	intact	intact	db8b6c6f-c114-4747-8437-3bfc1210df49_fps_avg_aud.mp4	0	0	NaN	NaN	NaN	none	none	NaN	0.385	high
410	5	84	0	auto	0.5	NaN	green	1	left	left	GLO	none	close	0	intact	none	none	0	0	NaN	NaN	NaN	none	none	NaN	0.385	high
410	5	85	0	auto	0.5	NaN	red	0	down	down	GLO	none	far	1	intact	intact	4d7a8a8c-063f-4a89-bd24-c32713b6ffa7_fps_avg_aud.mp4	0	0	NaN	NaN	NaN	none	none	NaN	0.385	high
410	5	86	0	auto	0.5	NaN	blue	0	up	up	GLO	none	close	1	intact	intact	19665232-505f-47ba-bfb2-2e9668369ce4_fps_avg_aud.mp4	0	0	NaN	NaN	NaN	none	none	NaN	0.385	high
410	5	87	0	auto	0.5	NaN	blue	1	down	down	GLO	none	close	1	intact	intact	fa34c2a5-d3e2-4d1e-914f-e40c92a49120_fps_avg_aud.mp4	0	0	NaN	NaN	NaN	none	none	NaN	0.385	high
410	5	88	0	auto	0.5	NaN	yellow	0	left	left	GLO	none	far	1	intact	intact	Mar30_fps_avg_aud.mp4	0	0	NaN	NaN	NaN	none	none	NaN	0.385	high
410	5	89	0	auto	0.5	NaN	red	1	right	right	GLO	none	far	0	intact	none	none	0	0	NaN	NaN	NaN	none	none	NaN	0.385	high
410	5	90	0	auto	0.5	NaN	blue	1	right	right	GLO	none	far	1	intact	intact	24d66d05-cb47-4803-b009-da6ae79affa7_fps_avg_aud.mp4	0	0	NaN	NaN	NaN	none	none	NaN	0.385	high
410	5	91	0	auto	0.5	NaN	red	0	down	down	GLO	none	close	1	intact	intact	80bae024-90b7-4369-88be-93c1000385ef_fps_avg_aud.mp4	0	0	NaN	NaN	NaN	none	none	NaN	0.385	high
410	5	92	0	auto	0.5	NaN	blue	1	down	down	GLO	none	close	1	intact	intact	deff750b-b4a4-440e-a47d-eb4c56f93a9d_fps_avg_aud.mp4	0	0	NaN	NaN	NaN	none	none	NaN	0.385	high
410	5	93	0	auto	0.5	NaN	yellow	1	right	right	GLO	none	far	0	intact	none	none	0	0	NaN	NaN	NaN	none	none	NaN	0.385	high
410	6	1	0	self	0.5	0.512541	blue	0	up	up	GLO	right	far	1	intact	intact	Feb8_fps_avg_aud.mp4	0	0	4.13833	0	1	up	blue	1	0.395	high
410	6	2	0	self	0.5	0.512044	yellow	1	up	up	GLO	right	far	1	intact	intact	August_3_2016_fps_avg_aud.mp4	0	0	0.880889	0	1	left	yellow	1	0.405	high
410	6	3	0	self	0.5	0.51099	yellow	0	left	left	GLO	left	far	1	intact	intact	Dec26_fps_avg_aud.mp4	0	0	0.864068	0	1	left	yellow	1	0.415	high
410	6	4	0	self	0.5	0.513449	red	0	down	down	GLO	left	far	1	intact	intact	6aaea3fa-b030-41d1-8780-a1c1120cd763_fps_avg_aud.mp4	0	0	0.698203	0	1	down	red	1	0.425	high
410	6	5	0	self	0.5	0.511311	blue	0	up	up	GLO	right	close	1	intact	intact	612a0f1b-c1f3-4c75-bb69-404849fe6ff8_fps_avg_aud.mp4	0	0	0.974153	0	1	up	blue	1	0.435	high
410	6	6	0	self	0.5	0.510347	yellow	0	left	left	GLO	right	close	1	intact	intact	e2244423-2494-4cef-96da-ceaa115b3e8d_fps_avg_aud.mp4	0	0	0.798697	0	1	left	yellow	1	0.445	high
410	6	7	0	self	0.5	0.513381	yellow	1	up	up	GLO	left	close	1	intact	intact	July21_fps_avg_aud.mp4	0	0	0.697592	0	1	left	yellow	1	0.455	high
410	6	8	0	self	0.5	0.513812	yellow	0	left	left	GLO	left	far	1	intact	intact	10969b38-242c-4207-88e8-6564613d4d88(1)_fps_avg_aud.mp4	0	0	0.616277	0	1	left	yellow	1	0.465	high
410	6	9	0	self	0.5	0.512605	blue	0	up	up	GLO	right	far	1	intact	intact	202647f1-9373-4eb4-ac9a-27bf605f227d_fps_avg_aud.mp4	0	0	0.682845	0	1	up	blue	1	0.475	high
410	6	10	0	self	0.5	0.511316	red	0	down	down	GLO	right	close	1	intact	intact	01eb0290-d17b-4697-b87a-733d1ecfc12d_fps_avg_aud.mp4	0	0	0.614984	0	1	down	red	1	0.485	high
410	6	11	0	self	0.5	0.514355	red	1	right	right	GLO	left	close	1	intact	intact	Feb25_fps_avg_aud.mp4	0	0	0.698038	0	1	down	red	1	0.495	high
410	6	12	0	self	0.5	0.513612	red	0	down	down	GLO	left	far	1	intact	intact	65e09f1a-138e-4ec0-8b5b-5702c47341ad_fps_avg_aud.mp4	0	0	0.614299	0	1	down	red	1	0.505	high
410	6	13	0	self	0.5	0.511859	green	1	up	up	GLO	left	close	1	intact	intact	2ee32cdc-eb1b-4b14-b0d7-fb25b7ed46e3_fps_avg_aud.mp4	0	0	0.780979	0	1	right	green	1	0.515	high
410	6	14	0	self	0.5	0.511637	yellow	0	left	left	GLO	right	close	1	intact	intact	0fb53cd4-6c5a-4fee-a2f6-e37a34d597fc_fps_avg_aud.mp4	0	0	0.624229	0	1	left	yellow	1	0.525	high
410	6	15	0	self	0.5	0.512719	red	1	right	right	GLO	left	close	1	intact	intact	e5e9435d-267e-4f33-bd02-80f8eeedf363_fps_avg_aud.mp4	0	0	0.679841	0	1	right	green	0	0.515	high
410	6	16	0	self	0.5	0.509803	red	0	down	down	GLO	right	far	1	intact	intact	80bae024-90b7-4369-88be-93c1000385ef_fps_avg_aud.mp4	0	0	2.26	0	1	down	red	1	0.525	high
410	6	17	0	self	0.5	0.511701	yellow	0	left	left	GLO	left	far	1	intact	intact	Feb11_fps_avg_aud.mp4	0	0	0.698524	0	1	left	yellow	1	0.535	high
410	6	18	0	self	0.5	0.513273	yellow	1	up	up	GLO	right	close	1	intact	intact	6189325b-e315-4417-8d81-a8cae54059df_fps_avg_aud.mp4	0	0	1.06529	0	1	left	yellow	1	0.545	high
410	6	19	0	self	0.5	0.510256	yellow	0	left	left	GLO	left	far	1	intact	intact	030a135d-605a-42ea-902a-469aeded471a_fps_avg_aud.mp4	0	0	0.647758	0	1	left	yellow	1	0.555	high
410	6	20	0	self	0.5	0.511374	yellow	1	down	down	GLO	left	close	1	intact	intact	Apr30_fps_avg_aud.mp4	0	0	0.580856	0	1	left	yellow	1	0.565	high
410	6	21	0	self	0.5	0.510223	green	1	up	up	GLO	left	far	1	intact	intact	8131cc16-56a9-45d8-8dab-20ead5938e0a_fps_avg_aud.mp4	0	0	0.69697	0	1	right	green	1	0.575	high
410	6	22	0	self	0.5	0.515797	yellow	0	left	left	GLO	left	close	1	intact	intact	4d7a8a8c-063f-4a89-bd24-c32713b6ffa7_fps_avg_aud.mp4	0	0	0.698277	0	1	left	yellow	1	0.585	high
410	6	23	0	self	0.5	0.512622	red	1	up	up	GLO	left	far	1	intact	intact	ea8c6916-8b70-4539-be72-29487b43dc07_fps_avg_aud.mp4	0	0	0.880765	0	1	down	red	1	0.595	high
410	6	24	0	self	0.5	0.510115	yellow	1	right	right	GLO	left	close	1	intact	intact	0096623f-bd93-48df-96f9-85a0a749a586_fps_avg_aud.mp4	0	0	1.01556	0	1	left	yellow	1	0.605	high
410	6	25	0	self	0.5	0.512684	blue	1	right	right	GLO	left	close	1	intact	intact	491c6b26-e39a-4650-ae90-8d66fc596b16_fps_avg_aud.mp4	0	0	0.798776	0	1	up	blue	1	0.615	high
410	6	26	0	self	0.5	0.511052	blue	0	up	up	GLO	right	close	1	intact	intact	Nov19_fps_avg_aud.mp4	0	0	0.648191	0	1	up	blue	1	0.625	high
410	6	27	0	self	0.5	0.513446	blue	1	left	left	GLO	left	far	1	intact	intact	a36f5f1c-60eb-41c0-8ed1-09a4e01342bc_fps_avg_aud.mp4	0	0	0.632105	0	1	up	blue	1	0.635	high
410	6	28	0	self	0.5	0.511529	blue	0	up	up	GLO	left	far	1	intact	intact	8c9efcf8-40ef-4975-90f5-9d2449140a05_fps_avg_aud.mp4	0	0	0.548109	0	1	up	blue	1	0.645	high
410	6	29	0	self	0.5	0.512594	yellow	0	left	left	GLO	left	far	1	intact	intact	959dfee9-c1d0-4643-9cbd-f9e818b706fa_fps_avg_aud.mp4	0	0	0.580219	0	1	left	yellow	1	0.655	high
410	6	30	0	self	0.5	0.510924	green	1	left	left	GLO	right	close	1	intact	intact	2d9948f5-94d5-495f-a74e-80174a3c508a_fps_avg_aud.mp4	0	0	0.712783	0	1	right	green	1	0.665	high
410	6	31	0	self	0.5	0.510272	red	0	down	down	GLO	right	far	1	intact	intact	june_19_2015_fps_avg_aud.mp4	0	0	0.582203	0	1	down	red	1	0.675	high
410	6	32	0	self	0.5	0.513203	blue	0	up	up	GLO	right	far	1	intact	intact	f22090a0-ec04-4dfd-99ca-7810b9650ec8_fps_avg_aud.mp4	0	0	0.997506	0	1	up	blue	1	0.685	high
410	6	33	0	self	0.5	0.511058	blue	0	up	up	GLO	right	close	1	intact	intact	4d681112-07b2-4265-a7e1-d188bc4f8511_fps_avg_aud.mp4	0	0	0.54659	0	1	up	blue	1	0.695	high
410	6	34	0	self	0.5	0.512802	green	1	down	down	GLO	left	close	1	intact	intact	May7_fps_avg_aud.mp4	0	0	0.744585	0	1	right	green	1	0.705	high
410	6	35	0	self	0.5	0.509693	red	0	down	down	GLO	left	close	1	intact	intact	1c37d23d-fc2a-4933-8024-0106ebebe6c4_fps_avg_aud.mp4	0	0	0.781594	0	1	down	red	1	0.715	high
410	6	36	0	self	0.5	0.511738	yellow	1	down	down	GLO	left	far	1	intact	intact	d908683d-e7f6-43aa-ac1d-27222b281fc0_fps_avg_aud.mp4	0	0	0.782567	0	1	left	yellow	1	0.725	high
410	6	37	0	self	0.5	0.512191	blue	1	down	down	GLO	right	close	1	intact	intact	October_25_2016_fps_avg_aud.mp4	0	0	1.11217	0	1	up	blue	1	0.735	high
410	6	38	0	self	0.5	0.508365	green	0	right	right	GLO	right	close	1	intact	intact	may_25_2015_fps_avg_aud.mp4	0	0	0.748598	0	1	right	green	1	0.745	high
410	6	39	0	self	0.5	0.508839	blue	1	down	down	GLO	right	close	1	intact	intact	6d873e1d-8ad7-4688-a181-c3322982e4a6_fps_avg_aud.mp4	0	0	1.73237	0	1	up	blue	1	0.755	high
410	6	40	0	self	0.5	0.512448	yellow	1	up	up	GLO	left	far	1	intact	intact	592c03b4-010b-4f30-8521-fbf254e827b0_fps_avg_aud.mp4	0	0	1.63234	0	1	left	yellow	1	0.765	high
410	6	41	0	self	0.5	0.510512	red	0	down	down	GLO	left	close	1	intact	intact	fdcb9b5f-28c7-4da4-867c-57e1763a716c_fps_avg_aud.mp4	0	0	0.791946	0	1	down	red	1	0.775	high
410	6	42	0	self	0.5	NaN	yellow	1	down	down	GLO	none	close	1	intact	intact	919b74e0-dd30-4685-b063-8556e1e10c55_fps_avg_aud.mp4	0	0	NaN	NaN	NaN	none	none	NaN	0.775	high
410	6	43	0	self	0.5	NaN	blue	0	up	up	GLO	none	close	1	intact	intact	Jun8_fps_avg_aud.mp4	0	0	NaN	NaN	NaN	none	none	NaN	0.775	high
410	6	44	0	self	0.5	NaN	blue	1	down	down	GLO	none	far	1	intact	intact	a525e336-0ec0-4048-92cf-487e44952f5c_fps_avg_aud.mp4	0	0	NaN	NaN	NaN	none	none	NaN	0.775	high
410	6	45	0	self	0.5	NaN	red	1	right	right	GLO	none	far	1	intact	intact	January_2016_(3)_fps_avg_aud.mp4	0	0	NaN	NaN	NaN	none	none	NaN	0.775	high
410	6	46	0	self	0.5	NaN	green	1	down	down	GLO	none	close	1	intact	intact	December_2015_(2)_fps_avg_aud.mp4	0	0	NaN	NaN	NaN	none	none	NaN	0.775	high
410	6	47	0	self	0.5	NaN	yellow	1	up	up	GLO	none	close	1	intact	intact	856001bb-aa8d-41ae-ad3d-fd9ff39c28c0_fps_avg_aud.mp4	0	0	NaN	NaN	NaN	none	none	NaN	0.775	high
410	6	48	0	self	0.5	NaN	yellow	1	up	up	GLO	none	close	1	intact	intact	b2b0c46b-c908-4752-b5cb-16abe9f2c872_fps_avg_aud.mp4	0	0	NaN	NaN	NaN	none	none	NaN	0.775	high
410	6	49	0	self	0.5	NaN	yellow	0	left	left	GLO	none	far	1	intact	intact	2ad8c2cc-f109-45c5-925b-f1af257730e3_fps_avg_aud.mp4	0	0	NaN	NaN	NaN	none	none	NaN	0.775	high
410	6	50	0	self	0.5	NaN	blue	0	up	up	GLO	none	far	1	intact	intact	May15_fps_avg_aud.mp4	0	0	NaN	NaN	NaN	none	none	NaN	0.775	high
410	6	51	0	self	0.5	NaN	green	1	up	up	GLO	none	far	1	intact	intact	f001cded-b985-4905-a6ac-c1793ff8fab2_fps_avg_aud.mp4	0	0	NaN	NaN	NaN	none	none	NaN	0.775	high
410	6	52	0	self	0.5	NaN	yellow	0	left	left	GLO	none	close	1	intact	intact	15914fca-fb16-47ce-929a-161ca2c1fdf7_fps_avg_aud.mp4	0	0	NaN	NaN	NaN	none	none	NaN	0.775	high
410	6	53	0	self	0.5	NaN	green	1	up	up	GLO	none	close	1	intact	intact	05a4f0ad-5d14-4bd5-8c2b-7db284b369ce_fps_avg_aud.mp4	0	0	NaN	NaN	NaN	none	none	NaN	0.775	high
410	6	54	0	self	0.5	NaN	red	0	down	down	GLO	none	close	1	intact	intact	226bfd42-14d0-45a1-82ba-233f4ddec70a_fps_avg_aud.mp4	0	0	NaN	NaN	NaN	none	none	NaN	0.775	high
410	6	55	0	self	0.5	NaN	red	1	left	left	GLO	none	close	1	intact	intact	9c75459a-7dcd-444e-93fd-b229653b8169_fps_avg_aud.mp4	0	0	NaN	NaN	NaN	none	none	NaN	0.775	high
410	6	56	0	self	0.5	NaN	yellow	0	left	left	GLO	none	far	1	intact	intact	34cddff1-7a1a-4e71-be66-8a745a1d42f4_fps_avg_aud.mp4	0	0	NaN	NaN	NaN	none	none	NaN	0.775	high
410	6	57	0	self	0.5	NaN	blue	0	up	up	GLO	none	close	1	intact	intact	Jun19_fps_avg_aud.mp4	0	0	NaN	NaN	NaN	none	none	NaN	0.775	high
410	6	58	0	self	0.5	NaN	yellow	1	right	right	GLO	none	far	1	intact	intact	02831e99-5ac8-4fc5-9e76-9a04224fb33e_fps_avg_aud.mp4	0	0	NaN	NaN	NaN	none	none	NaN	0.775	high
410	6	59	0	self	0.5	NaN	green	1	left	left	GLO	none	close	1	intact	intact	8fc730b2-0fc1-4125-9e0e-c9ed1f9ab58a_fps_avg_aud.mp4	0	0	NaN	NaN	NaN	none	none	NaN	0.775	high
410	6	60	0	self	0.5	NaN	green	0	right	right	GLO	none	far	1	intact	intact	210cd477-4b9d-42a8-810f-6df0d7615942_fps_avg_aud.mp4	0	0	NaN	NaN	NaN	none	none	NaN	0.775	high
410	6	61	0	self	0.5	NaN	blue	1	down	down	GLO	none	close	1	intact	intact	f88c90ff-41f4-4220-a305-426fa931932f_fps_avg_aud.mp4	0	0	NaN	NaN	NaN	none	none	NaN	0.775	high
410	6	62	0	self	0.5	NaN	blue	0	up	up	GLO	none	far	1	intact	intact	11bc07f6-cbc9-48b9-a240-792e373d6a2a_fps_avg_aud.mp4	0	0	NaN	NaN	NaN	none	none	NaN	0.775	high
410	6	63	0	self	0.5	NaN	red	1	right	right	GLO	none	far	1	intact	intact	25a8b4d4-d5c7-4aab-af49-84ebba90c3be_fps_avg_aud.mp4	0	0	NaN	NaN	NaN	none	none	NaN	0.775	high
410	6	64	0	self	0.5	NaN	green	0	right	right	GLO	none	far	1	intact	intact	705c0056-c7dd-4090-a27e-8956e33cb4b0_fps_avg_aud.mp4	0	0	NaN	NaN	NaN	none	none	NaN	0.775	high
410	6	65	0	self	0.5	NaN	green	1	left	left	GLO	none	far	1	intact	intact	July2_fps_avg_aud.mp4	0	0	NaN	NaN	NaN	none	none	NaN	0.775	high
410	6	66	0	self	0.5	NaN	green	1	left	left	GLO	none	far	1	intact	intact	May19_fps_avg_aud.mp4	0	0	NaN	NaN	NaN	none	none	NaN	0.775	high
410	6	67	0	self	0.5	NaN	red	1	up	up	GLO	none	far	1	intact	intact	4492b756-14ac-4694-8c38-fa7503b864e1_fps_avg_aud.mp4	0	0	NaN	NaN	NaN	none	none	NaN	0.775	high
410	6	68	0	self	0.5	NaN	blue	1	left	left	GLO	none	close	1	intact	intact	Nov24_fps_avg_aud.mp4	0	0	NaN	NaN	NaN	none	none	NaN	0.775	high
410	6	69	0	self	0.5	NaN	blue	1	left	left	GLO	none	close	1	intact	intact	16fe28b7-019b-49e7-9b4b-6b9fba85fe3d_fps_avg_aud.mp4	0	0	NaN	NaN	NaN	none	none	NaN	0.775	high
410	6	70	0	self	0.5	NaN	yellow	0	left	left	GLO	none	close	1	intact	intact	Jun5_fps_avg_aud.mp4	0	0	NaN	NaN	NaN	none	none	NaN	0.775	high
410	6	71	0	self	0.5	NaN	blue	0	up	up	GLO	none	close	1	intact	intact	24481237-3ead-4e6a-9a61-be95f34bf5f2_fps_avg_aud.mp4	0	0	NaN	NaN	NaN	none	none	NaN	0.775	high
410	6	72	0	self	0.5	NaN	green	1	up	up	GLO	none	far	1	intact	intact	23c8ed33-90c4-4605-8822-6270c3a6ca34_fps_avg_aud.mp4	0	0	NaN	NaN	NaN	none	none	NaN	0.775	high
410	6	73	0	self	0.5	NaN	yellow	1	up	up	GLO	none	far	1	intact	intact	Aug11_fps_avg_aud.mp4	0	0	NaN	NaN	NaN	none	none	NaN	0.775	high
410	6	74	0	self	0.5	NaN	green	1	left	left	GLO	none	close	1	intact	intact	Mar23_fps_avg_aud.mp4	0	0	NaN	NaN	NaN	none	none	NaN	0.775	high
410	6	75	0	self	0.5	NaN	red	1	left	left	GLO	none	far	1	intact	intact	e5ba6207-d3a1-4e68-9c36-3fbb5658f232_fps_avg_aud.mp4	0	0	NaN	NaN	NaN	none	none	NaN	0.775	high
410	6	76	0	self	0.5	NaN	green	0	right	right	GLO	none	far	1	intact	intact	334b06e5-5a99-4c23-b82f-0b02017f9d2e_fps_avg_aud.mp4	0	0	NaN	NaN	NaN	none	none	NaN	0.775	high
410	6	77	0	self	0.5	NaN	green	0	right	right	GLO	none	close	1	intact	intact	960000ea-ab44-4258-8824-51f8fdf7a806_fps_avg_aud.mp4	0	0	NaN	NaN	NaN	none	none	NaN	0.775	high
410	6	78	0	self	0.5	NaN	green	1	up	up	GLO	none	far	1	intact	intact	647890e0-5689-43cf-86ab-b37e61076130_fps_avg_aud.mp4	0	0	NaN	NaN	NaN	none	none	NaN	0.775	high
410	6	79	0	self	0.5	NaN	red	1	left	left	GLO	none	far	1	intact	intact	August_2016_fps_avg_aud.mp4	0	0	NaN	NaN	NaN	none	none	NaN	0.775	high
410	6	80	0	self	0.5	NaN	red	1	up	up	GLO	none	close	1	intact	intact	October_20_2016_fps_avg_aud.mp4	0	0	NaN	NaN	NaN	none	none	NaN	0.775	high
410	6	81	0	self	0.5	NaN	blue	1	down	down	GLO	none	far	1	intact	intact	1559c6cc-6a1d-4309-9bdf-810832c277d8_fps_avg_aud.mp4	0	0	NaN	NaN	NaN	none	none	NaN	0.775	high
410	6	82	0	self	0.5	NaN	green	1	up	up	GLO	none	far	1	intact	intact	a9843691-e4cb-4c12-aa70-47f2024c5698_fps_avg_aud.mp4	0	0	NaN	NaN	NaN	none	none	NaN	0.775	high
410	6	83	0	self	0.5	NaN	red	0	down	down	GLO	none	close	1	intact	intact	fd318c50-e133-4dc8-918b-b97094aebdf0_fps_avg_aud.mp4	0	0	NaN	NaN	NaN	none	none	NaN	0.775	high
410	6	84	0	self	0.5	NaN	yellow	1	right	right	GLO	none	close	1	intact	intact	08d3f099-f57f-4490-a984-630519ad1c45_fps_avg_aud.mp4	0	0	NaN	NaN	NaN	none	none	NaN	0.775	high
410	6	85	0	self	0.5	NaN	blue	0	up	up	GLO	none	close	1	intact	intact	6ce71e9b-76db-4300-af8c-23df366c03d0_fps_avg_aud.mp4	0	0	NaN	NaN	NaN	none	none	NaN	0.775	high
410	6	86	0	self	0.5	NaN	green	0	right	right	GLO	none	far	1	intact	intact	ec93e301-9c09-4bba-94b5-edac54ba0e07_fps_avg_aud.mp4	0	0	NaN	NaN	NaN	none	none	NaN	0.775	high
410	6	87	0	self	0.5	NaN	blue	1	right	right	GLO	none	far	1	intact	intact	14b4b9c3-9408-4ec8-bd84-8e92a4405645_fps_avg_aud.mp4	0	0	NaN	NaN	NaN	none	none	NaN	0.775	high
410	6	88	0	self	0.5	NaN	blue	1	down	down	GLO	none	far	1	intact	intact	Mar14_fps_avg_aud.mp4	0	0	NaN	NaN	NaN	none	none	NaN	0.775	high
410	6	89	0	self	0.5	NaN	red	1	left	left	GLO	none	close	1	intact	intact	June_112016_fps_avg_aud.mp4	0	0	NaN	NaN	NaN	none	none	NaN	0.775	high
410	6	90	0	self	0.5	NaN	green	0	right	right	GLO	none	close	1	intact	intact	Dec25_fps_avg_aud.mp4	0	0	NaN	NaN	NaN	none	none	NaN	0.775	high
410	6	91	0	self	0.5	NaN	yellow	1	up	up	GLO	none	far	1	intact	intact	Jun1_fps_avg_aud.mp4	0	0	NaN	NaN	NaN	none	none	NaN	0.775	high
410	6	92	0	self	0.5	NaN	green	1	left	left	GLO	none	far	1	intact	intact	9bd7a199-78f1-4f14-9fde-3a11c0ebd236_fps_avg_aud.mp4	0	0	NaN	NaN	NaN	none	none	NaN	0.775	high
410	6	93	0	self	0.5	NaN	blue	0	up	up	GLO	none	far	1	intact	intact	Nov7_fps_avg_aud.mp4	0	0	NaN	NaN	NaN	none	none	NaN	0.775	high
410	7	1	0	self	0.5	0.510419	red	0	down	down	GLO	left	far	1	intact	intact	Mar14_fps_avg_aud.mp4	0	0	2.47889	0	1	down	red	1	0.776	low
410	7	2	0	self	0.5	0.51026	yellow	0	left	left	GLO	left	far	1	intact	intact	79665cdb-61c8-40fb-9ffc-0682e57caf2f_fps_avg_aud.mp4	0	0	0.672734	0	1	left	yellow	1	0.777	low
410	7	3	0	self	0.5	0.508724	blue	0	up	up	GLO	left	far	1	intact	intact	e6c6cdbe-2a63-4eeb-b544-6fc0a25dc157_fps_avg_aud.mp4	0	0	0.630709	0	1	up	blue	1	0.778	low
410	7	4	0	self	0.5	0.513137	yellow	0	left	left	GLO	left	close	1	intact	intact	fc42fffc-beb2-426f-85f8-fe9f11671486_fps_avg_aud.mp4	0	0	0.725111	0	1	left	yellow	1	0.779	low
410	7	5	0	self	0.5	0.511512	green	1	up	up	GLO	right	far	1	intact	intact	June_2016_(3)_fps_avg_aud.mp4	0	0	0.681127	0	1	right	green	1	0.78	low
410	7	6	0	self	0.5	0.510919	yellow	0	left	left	GLO	right	far	1	intact	intact	Aug10_fps_avg_aud.mp4	0	0	0.67948	0	1	left	yellow	1	0.781	low
410	7	7	0	self	0.5	0.512588	yellow	1	up	up	GLO	left	far	1	intact	intact	May_2016_(1)_fps_avg_aud.mp4	0	0	0.597542	0	1	left	yellow	1	0.782	low
410	7	8	0	self	0.5	0.510091	red	0	down	down	GLO	right	far	1	intact	intact	667c6586-78bc-49b6-b207-12bdfa8fdd9e_fps_avg_aud.mp4	0	0	0.597429	0	1	down	red	1	0.783	low
410	7	9	0	self	0.5	0.511279	red	0	down	down	GLO	left	far	1	intact	intact	8021b6b2-93f5-4b8a-981e-576768624e6e_fps_avg_aud.mp4	0	0	0.496258	0	1	down	red	1	0.784	low
