ID	Block	Trials	Practice	VideoStart	ITI	ITI_measured	Color	Conflict	Global	Local	Task	Video_pos	Video_dist	Video_present	Video_cat_cond	Video_cat	Video	VideoPlayed	VideoCheck	RT	DT	Visits	KeyPress	KeyColor	Correct	Reward	RewardCond
411	1	1	1	none	1.5	1.48815	yellow	0	left	left	GLO	left	close	0	intact	none	none	0	0	0.521902	0	1	left	yellow	1	0	0
411	1	2	1	none	1.5	1.51185	blue	1	left	left	GLO	right	close	0	intact	none	none	0	0	0.823576	0	1	up	blue	1	0	0
411	1	3	1	none	1.5	1.51511	green	1	left	left	GLO	left	far	0	intact	none	none	0	0	0.803481	0	1	right	green	1	0	0
411	1	4	1	none	1.5	1.5138	green	1	left	left	GLO	right	far	0	intact	none	none	0	0	0.605649	0	1	right	green	1	0	0
411	1	5	1	none	1.5	1.51706	green	1	down	down	GLO	left	far	0	intact	none	none	0	0	0.652534	0	1	right	green	1	0	0
411	1	6	1	none	1.5	1.51446	yellow	0	left	left	GLO	left	close	0	intact	none	none	0	0	0.529049	0	1	left	yellow	1	0	0
411	1	7	1	none	1.5	1.51315	blue	0	up	up	GLO	left	far	0	intact	none	none	0	0	0.776012	0	1	up	blue	1	0	0
411	1	8	1	none	1.5	1.51632	green	1	down	down	GLO	left	far	0	intact	none	none	0	0	0.648586	0	1	right	green	1	0	0
411	1	9	1	none	1.5	1.51414	green	0	right	right	GLO	left	close	0	intact	none	none	0	0	0.545698	0	1	right	green	1	0	0
411	1	10	1	none	1.5	1.51297	blue	0	up	up	GLO	right	far	0	intact	none	none	0	0	1.04889	0	1	up	blue	1	0	0
411	1	11	1	none	1.5	1.51525	yellow	1	right	right	GLO	left	far	0	intact	none	none	0	0	0.627423	0	1	left	yellow	1	0	0
411	1	12	1	none	1.5	1.51365	blue	1	right	right	GLO	right	far	0	intact	none	none	0	0	0.731862	0	1	right	green	0	0	0
411	1	13	1	none	1.5	1.51391	red	1	up	up	GLO	right	far	0	intact	none	none	0	0	1.12374	0	1	down	red	1	0	0
411	1	14	1	none	1.5	1.51596	blue	0	up	up	GLO	right	close	0	intact	none	none	0	0	0.848354	0	1	up	blue	1	0	0
411	1	15	1	none	1.5	1.51509	green	1	down	down	GLO	left	far	0	intact	none	none	0	0	0.798027	0	1	right	green	1	0	0
411	1	16	1	none	1.5	1.51551	green	1	up	up	GLO	right	far	0	intact	none	none	0	0	0.572758	0	1	right	green	1	0	0
411	1	17	1	none	1.5	1.51391	red	0	down	down	GLO	right	close	0	intact	none	none	0	0	1.1459	0	1	down	red	1	0	0
411	1	18	1	none	1.5	1.51476	blue	0	up	up	GLO	right	far	0	intact	none	none	0	0	0.982876	0	1	up	blue	1	0	0
411	1	19	1	none	1.5	1.5132	blue	0	up	up	GLO	left	far	0	intact	none	none	0	0	0.715706	0	1	up	blue	1	0	0
411	1	20	1	none	1.5	1.51103	blue	0	up	up	GLO	left	far	0	intact	none	none	0	0	0.632276	0	1	up	blue	1	0	0
411	1	21	1	none	1.5	1.51464	red	1	left	left	GLO	right	far	0	intact	none	none	0	0	0.965244	0	1	down	red	1	0	0
411	1	22	1	none	1.5	1.51407	green	1	up	up	GLO	left	far	0	intact	none	none	0	0	1.00108	0	1	right	green	1	0	0
411	1	23	1	none	1.5	1.51556	red	0	down	down	GLO	right	close	0	intact	none	none	0	0	1.24776	0	1	down	red	1	0	0
411	1	24	1	none	1.5	1.51427	red	1	up	up	GLO	right	close	0	intact	none	none	0	0	0.881128	0	1	down	red	1	0	0
411	1	25	1	none	1.5	1.513	green	1	up	up	GLO	left	close	0	intact	none	none	0	0	0.848363	0	1	right	green	1	0	0
411	1	26	1	none	1.5	1.51282	red	0	down	down	GLO	left	far	0	intact	none	none	0	0	0.781949	0	1	down	red	1	0	0
411	1	27	1	none	1.5	1.5144	blue	1	down	down	GLO	left	far	0	intact	none	none	0	0	0.614168	0	1	up	blue	1	0	0
411	1	28	1	none	1.5	1.51378	red	0	down	down	GLO	right	far	0	intact	none	none	0	0	0.671379	0	1	down	red	1	0	0
411	1	29	1	none	1.5	1.51261	green	1	up	up	GLO	left	far	0	intact	none	none	0	0	0.723981	0	1	right	green	1	0	0
411	1	30	1	none	1.5	1.51568	yellow	0	left	left	GLO	right	far	0	intact	none	none	0	0	0.662664	0	1	left	yellow	1	0	0
411	1	31	1	none	1.5	1.51426	yellow	1	down	down	GLO	left	far	0	intact	none	none	0	0	0.600129	0	1	left	yellow	1	0	0
411	1	32	1	none	1.5	1.51106	blue	1	left	left	GLO	right	far	0	intact	none	none	0	0	1.09787	0	1	up	blue	1	0	0
411	1	33	1	none	1.5	1.51357	blue	1	down	down	GLO	left	close	0	intact	none	none	0	0	0.543631	0	1	up	blue	1	0	0
411	1	34	1	none	1.5	1.51305	red	1	left	left	GLO	left	far	0	intact	none	none	0	0	0.832008	0	1	down	red	1	0	0
411	1	35	1	none	1.5	1.51348	red	0	down	down	GLO	right	far	0	intact	none	none	0	0	0.574409	0	1	down	red	1	0	0
411	1	36	1	none	1.5	1.51384	green	1	down	down	GLO	right	close	0	intact	none	none	0	0	0.796814	0	1	right	green	1	0	0
411	1	37	1	none	0.5	0.512038	green	1	left	left	GLO	right	close	0	intact	none	none	0	0	0.565002	0	1	right	green	1	0	0
411	1	38	1	none	0.5	0.512826	yellow	0	left	left	GLO	right	far	0	intact	none	none	0	0	0.646579	0	1	left	yellow	1	0	0
411	1	39	1	none	0.5	0.514758	red	0	down	down	GLO	left	far	0	intact	none	none	0	0	0.765436	0	1	down	red	1	0	0
411	1	40	1	none	0.5	0.512472	blue	1	right	right	GLO	right	far	0	intact	none	none	0	0	0.731589	0	1	up	blue	1	0	0
411	1	41	1	none	0.5	0.513969	green	0	right	right	GLO	right	close	0	intact	none	none	0	0	0.680083	0	1	right	green	1	0	0
411	1	42	1	none	0.5	0.516446	red	1	up	up	GLO	left	close	0	intact	none	none	0	0	0.948568	0	1	down	red	1	0	0
411	1	43	1	none	0.5	0.515887	red	0	down	down	GLO	left	far	0	intact	none	none	0	0	0.6155	0	1	down	red	1	0	0
411	1	44	1	none	0.5	0.512211	blue	0	up	up	GLO	right	close	0	intact	none	none	0	0	0.558854	0	1	up	blue	1	0	0
411	1	45	1	none	0.5	0.514875	red	0	down	down	GLO	right	close	0	intact	none	none	0	0	0.578353	0	1	down	red	1	0	0
411	1	46	1	none	0.5	0.515237	red	0	down	down	GLO	right	far	0	intact	none	none	0	0	0.531608	0	1	down	red	1	0	0
411	1	47	1	none	0.5	0.514484	red	1	right	right	GLO	left	far	0	intact	none	none	0	0	0.692654	0	1	down	red	1	0	0
411	1	48	1	none	0.5	0.513227	yellow	0	left	left	GLO	right	far	0	intact	none	none	0	0	0.678122	0	1	left	yellow	1	0	0
411	1	49	1	none	0.5	0.516875	green	0	right	right	GLO	left	close	0	intact	none	none	0	0	0.497672	0	1	right	green	1	0	0
411	1	50	1	none	0.5	0.511258	yellow	0	left	left	GLO	right	close	0	intact	none	none	0	0	0.498451	0	1	left	yellow	1	0	0
411	1	51	1	none	0.5	0.514588	green	1	up	up	GLO	left	close	0	intact	none	none	0	0	0.598182	0	1	right	green	1	0	0
411	1	52	1	none	0.5	0.514574	red	0	down	down	GLO	right	close	0	intact	none	none	0	0	0.647994	0	1	down	red	1	0	0
411	1	53	1	none	0.5	0.50967	green	0	right	right	GLO	left	far	0	intact	none	none	0	0	0.790024	0	1	right	green	1	0	0
411	1	54	1	none	0.5	0.514385	blue	1	down	down	GLO	left	close	0	intact	none	none	0	0	0.630921	0	1	up	blue	1	0	0
411	1	55	1	none	0.5	0.515241	yellow	1	up	up	GLO	right	close	0	intact	none	none	0	0	0.581374	0	1	left	yellow	1	0	0
411	1	56	1	none	0.5	0.51257	blue	0	up	up	GLO	left	far	0	intact	none	none	0	0	0.563195	0	1	up	blue	1	0	0
411	1	57	1	none	0.5	0.514223	yellow	0	left	left	GLO	right	far	0	intact	none	none	0	0	0.460908	0	1	left	yellow	1	0	0
411	1	58	1	none	0.5	0.5104	yellow	1	right	right	GLO	left	far	0	intact	none	none	0	0	0.497079	0	1	left	yellow	1	0	0
411	1	59	1	none	0.5	0.514599	yellow	1	right	right	GLO	left	far	0	intact	none	none	0	0	0.398673	0	1	left	yellow	1	0	0
411	1	60	1	none	0.5	0.511593	blue	0	up	up	GLO	right	far	0	intact	none	none	0	0	0.615878	0	1	up	blue	1	0	0
411	1	61	1	none	0.5	0.513602	yellow	1	down	down	GLO	right	far	0	intact	none	none	0	0	0.631994	0	1	left	yellow	1	0	0
411	1	62	1	none	0.5	0.510514	red	1	right	right	GLO	right	far	0	intact	none	none	0	0	0.814976	0	1	down	red	1	0	0
411	1	63	1	none	0.5	0.513439	green	1	up	up	GLO	right	far	0	intact	none	none	0	0	0.664363	0	1	right	green	1	0	0
411	1	64	1	none	0.5	0.51145	blue	0	up	up	GLO	left	close	0	intact	none	none	0	0	0.732335	0	1	up	blue	1	0	0
411	1	65	1	none	0.5	0.512555	green	1	up	up	GLO	right	far	0	intact	none	none	0	0	0.664977	0	1	right	green	1	0	0
411	1	66	1	none	0.5	0.512703	yellow	1	right	right	GLO	right	far	0	intact	none	none	0	0	0.549234	0	1	left	yellow	1	0	0
411	1	67	1	none	0.5	0.513787	blue	0	up	up	GLO	right	far	0	intact	none	none	0	0	0.648869	0	1	up	blue	1	0	0
411	1	68	1	none	0.5	0.510602	yellow	0	left	left	GLO	right	far	0	intact	none	none	0	0	0.59797	0	1	left	yellow	1	0	0
411	1	69	1	none	0.5	0.512926	green	1	up	up	GLO	left	far	0	intact	none	none	0	0	0.614397	0	1	right	green	1	0	0
411	1	70	1	none	0.5	0.511735	blue	1	left	left	GLO	left	far	0	intact	none	none	0	0	0.732033	0	1	up	blue	1	0	0
411	1	71	1	none	0.5	0.514481	yellow	1	down	down	GLO	right	close	0	intact	none	none	0	0	0.547818	0	1	left	yellow	1	0	0
411	1	72	1	none	0.5	0.513771	red	0	down	down	GLO	right	close	0	intact	none	none	0	0	0.565052	0	1	down	red	1	0	0
411	1	73	1	none	0.5	0.51582	blue	1	left	left	GLO	right	close	0	intact	none	none	0	0	0.640646	0	1	up	blue	1	0	0
411	1	74	1	none	0.5	0.510497	red	1	right	right	GLO	right	close	0	intact	none	none	0	0	0.614305	0	1	down	red	1	0	0
411	1	75	1	none	0.5	0.514691	yellow	0	left	left	GLO	left	close	0	intact	none	none	0	0	0.531652	0	1	left	yellow	1	0	0
411	1	76	1	none	0.5	0.510506	red	0	down	down	GLO	right	close	0	intact	none	none	0	0	0.680323	0	1	down	red	1	0	0
411	1	77	1	none	0.5	0.512876	blue	0	up	up	GLO	right	far	0	intact	none	none	0	0	0.542339	0	1	up	blue	1	0	0
411	1	78	1	none	0.5	0.513708	green	0	right	right	GLO	left	far	0	intact	none	none	0	0	0.496995	0	1	right	green	1	0	0
411	1	79	1	none	0.5	0.511704	green	0	right	right	GLO	right	close	0	intact	none	none	0	0	0.448685	0	1	right	green	1	0	0
411	1	80	1	none	0.5	0.511329	red	0	down	down	GLO	left	far	0	intact	none	none	0	0	0.548293	0	1	down	red	1	0	0
411	1	81	1	none	0.5	0.513429	blue	1	down	down	GLO	right	far	0	intact	none	none	0	0	0.641074	0	1	up	blue	1	0	0
411	1	82	1	none	0.5	0.513026	red	0	down	down	GLO	right	close	0	intact	none	none	0	0	0.864144	0	1	down	red	1	0	0
411	1	83	1	none	0.5	0.512607	green	1	up	up	GLO	right	close	0	intact	none	none	0	0	0.480559	0	1	right	green	1	0	0
411	1	84	1	none	0.5	0.510675	green	1	left	left	GLO	right	far	0	intact	none	none	0	0	0.473628	0	1	right	green	1	0	0
411	1	85	1	none	0.5	0.511998	red	0	down	down	GLO	right	far	0	intact	none	none	0	0	0.547525	0	1	down	red	1	0	0
411	1	86	1	none	0.5	0.513371	blue	1	down	down	GLO	left	far	0	intact	none	none	0	0	0.615234	0	1	up	blue	1	0	0
411	1	87	1	none	0.5	0.512377	blue	1	right	right	GLO	left	far	0	intact	none	none	0	0	0.531449	0	1	up	blue	1	0	0
411	1	88	1	none	0.5	0.51278	red	0	down	down	GLO	left	close	0	intact	none	none	0	0	0.665229	0	1	down	red	1	0	0
411	1	89	1	none	0.5	0.514349	yellow	1	down	down	GLO	right	close	0	intact	none	none	0	0	0.738847	0	1	left	yellow	1	0	0
411	1	90	1	none	0.5	0.511492	red	0	down	down	GLO	left	far	0	intact	none	none	0	0	0.814493	0	1	down	red	1	0	0
411	1	91	1	none	0.5	0.513243	red	1	right	right	GLO	left	far	0	intact	none	none	0	0	0.598209	0	1	down	red	1	0	0
411	1	92	1	none	0.5	0.512912	red	0	down	down	GLO	left	close	0	intact	none	none	0	0	0.481127	0	1	down	red	1	0	0
411	1	93	1	none	0.5	0.515699	yellow	1	right	right	GLO	left	close	0	intact	none	none	0	0	0.463682	0	1	right	green	0	0	0
411	1	94	1	none	0.5	0.51117	green	1	down	down	GLO	right	close	0	intact	none	none	0	0	0.547619	0	1	right	green	1	0	0
411	1	95	1	none	0.5	0.514704	blue	1	right	right	GLO	left	close	0	intact	none	none	0	0	0.865079	0	1	up	blue	1	0	0
411	1	96	1	none	0.5	0.512913	yellow	1	right	right	GLO	left	far	0	intact	none	none	0	0	0.589144	0	1	left	yellow	1	0	0
411	1	97	1	none	0.5	0.512744	red	0	down	down	GLO	left	far	0	intact	none	none	0	0	0.531966	0	1	down	red	1	0	0
411	1	98	1	none	0.5	0.515174	yellow	1	down	down	GLO	left	close	0	intact	none	none	0	0	1.49851	0	1	left	yellow	1	0	0
411	1	99	1	none	0.5	NaN	green	0	right	right	GLO	none	far	0	intact	none	none	0	0	NaN	NaN	NaN	none	none	NaN	0	0
411	1	100	1	none	0.5	NaN	blue	1	right	right	GLO	none	far	0	intact	none	none	0	0	NaN	NaN	NaN	none	none	NaN	0	0
411	1	101	1	none	0.5	NaN	green	1	up	up	GLO	none	close	0	intact	none	none	0	0	NaN	NaN	NaN	none	none	NaN	0	0
411	1	102	1	none	0.5	NaN	green	1	down	down	GLO	none	close	0	intact	none	none	0	0	NaN	NaN	NaN	none	none	NaN	0	0
411	1	103	1	none	0.5	NaN	yellow	1	right	right	GLO	none	close	0	intact	none	none	0	0	NaN	NaN	NaN	none	none	NaN	0	0
411	1	104	1	none	0.5	NaN	green	0	right	right	GLO	none	far	0	intact	none	none	0	0	NaN	NaN	NaN	none	none	NaN	0	0
411	1	105	1	none	0.5	NaN	blue	0	up	up	GLO	none	far	0	intact	none	none	0	0	NaN	NaN	NaN	none	none	NaN	0	0
411	1	106	1	none	0.5	NaN	green	0	right	right	GLO	none	close	0	intact	none	none	0	0	NaN	NaN	NaN	none	none	NaN	0	0
411	1	107	1	none	0.5	NaN	yellow	1	up	up	GLO	none	close	0	intact	none	none	0	0	NaN	NaN	NaN	none	none	NaN	0	0
411	1	108	1	none	0.5	NaN	red	1	right	right	GLO	none	close	0	intact	none	none	0	0	NaN	NaN	NaN	none	none	NaN	0	0
411	1	109	1	none	0.5	NaN	yellow	0	left	left	GLO	none	far	0	intact	none	none	0	0	NaN	NaN	NaN	none	none	NaN	0	0
411	1	110	1	none	0.5	NaN	blue	1	down	down	GLO	none	far	0	intact	none	none	0	0	NaN	NaN	NaN	none	none	NaN	0	0
411	1	111	1	none	0.5	NaN	red	0	down	down	GLO	none	far	0	intact	none	none	0	0	NaN	NaN	NaN	none	none	NaN	0	0
411	1	112	1	none	0.5	NaN	green	1	up	up	GLO	none	far	0	intact	none	none	0	0	NaN	NaN	NaN	none	none	NaN	0	0
411	1	113	1	none	0.5	NaN	red	0	down	down	GLO	none	far	0	intact	none	none	0	0	NaN	NaN	NaN	none	none	NaN	0	0
411	1	114	1	none	0.5	NaN	yellow	1	down	down	GLO	none	close	0	intact	none	none	0	0	NaN	NaN	NaN	none	none	NaN	0	0
411	1	115	1	none	0.5	NaN	yellow	1	up	up	GLO	none	close	0	intact	none	none	0	0	NaN	NaN	NaN	none	none	NaN	0	0
411	1	116	1	none	0.5	NaN	green	0	right	right	GLO	none	close	0	intact	none	none	0	0	NaN	NaN	NaN	none	none	NaN	0	0
411	1	117	1	none	0.5	NaN	green	0	right	right	GLO	none	far	0	intact	none	none	0	0	NaN	NaN	NaN	none	none	NaN	0	0
411	1	118	1	none	0.5	NaN	green	1	up	up	GLO	none	far	0	intact	none	none	0	0	NaN	NaN	NaN	none	none	NaN	0	0
411	1	119	1	none	0.5	NaN	yellow	0	left	left	GLO	none	far	0	intact	none	none	0	0	NaN	NaN	NaN	none	none	NaN	0	0
411	1	120	1	none	0.5	NaN	green	1	down	down	GLO	none	close	0	intact	none	none	0	0	NaN	NaN	NaN	none	none	NaN	0	0
411	1	121	1	none	0.5	NaN	green	0	right	right	GLO	none	far	0	intact	none	none	0	0	NaN	NaN	NaN	none	none	NaN	0	0
411	1	122	1	none	0.5	NaN	yellow	0	left	left	GLO	none	close	0	intact	none	none	0	0	NaN	NaN	NaN	none	none	NaN	0	0
411	1	123	1	none	0.5	NaN	blue	0	up	up	GLO	none	far	0	intact	none	none	0	0	NaN	NaN	NaN	none	none	NaN	0	0
411	1	124	1	none	0.5	NaN	blue	0	up	up	GLO	none	close	0	intact	none	none	0	0	NaN	NaN	NaN	none	none	NaN	0	0
411	1	125	1	none	0.5	NaN	red	1	up	up	GLO	none	far	0	intact	none	none	0	0	NaN	NaN	NaN	none	none	NaN	0	0
411	1	126	1	none	0.5	NaN	blue	0	up	up	GLO	none	far	0	intact	none	none	0	0	NaN	NaN	NaN	none	none	NaN	0	0
411	1	127	1	none	0.5	NaN	green	0	right	right	GLO	none	far	0	intact	none	none	0	0	NaN	NaN	NaN	none	none	NaN	0	0
411	1	128	1	none	0.5	NaN	red	1	up	up	GLO	none	far	0	intact	none	none	0	0	NaN	NaN	NaN	none	none	NaN	0	0
411	1	129	1	none	0.5	NaN	yellow	0	left	left	GLO	none	close	0	intact	none	none	0	0	NaN	NaN	NaN	none	none	NaN	0	0
411	1	130	1	none	0.5	NaN	yellow	0	left	left	GLO	none	far	0	intact	none	none	0	0	NaN	NaN	NaN	none	none	NaN	0	0
411	1	131	1	none	0.5	NaN	blue	1	down	down	GLO	none	close	0	intact	none	none	0	0	NaN	NaN	NaN	none	none	NaN	0	0
411	1	132	1	none	0.5	NaN	blue	0	up	up	GLO	none	far	0	intact	none	none	0	0	NaN	NaN	NaN	none	none	NaN	0	0
411	1	133	1	none	0.5	NaN	blue	0	up	up	GLO	none	close	0	intact	none	none	0	0	NaN	NaN	NaN	none	none	NaN	0	0
411	1	134	1	none	0.5	NaN	blue	1	left	left	GLO	none	far	0	intact	none	none	0	0	NaN	NaN	NaN	none	none	NaN	0	0
411	1	135	1	none	0.5	NaN	green	1	up	up	GLO	none	close	0	intact	none	none	0	0	NaN	NaN	NaN	none	none	NaN	0	0
411	1	136	1	none	0.5	NaN	red	1	left	left	GLO	none	close	0	intact	none	none	0	0	NaN	NaN	NaN	none	none	NaN	0	0
411	1	137	1	none	0.5	NaN	green	0	right	right	GLO	none	far	0	intact	none	none	0	0	NaN	NaN	NaN	none	none	NaN	0	0
411	1	138	1	none	0.5	NaN	yellow	1	right	right	GLO	none	close	0	intact	none	none	0	0	NaN	NaN	NaN	none	none	NaN	0	0
411	1	139	1	none	0.5	NaN	yellow	1	right	right	GLO	none	far	0	intact	none	none	0	0	NaN	NaN	NaN	none	none	NaN	0	0
411	1	140	1	none	0.5	NaN	blue	0	up	up	GLO	none	far	0	intact	none	none	0	0	NaN	NaN	NaN	none	none	NaN	0	0
411	1	141	1	none	0.5	NaN	green	1	up	up	GLO	none	far	0	intact	none	none	0	0	NaN	NaN	NaN	none	none	NaN	0	0
411	1	142	1	none	0.5	NaN	green	0	right	right	GLO	none	close	0	intact	none	none	0	0	NaN	NaN	NaN	none	none	NaN	0	0
411	1	143	1	none	0.5	NaN	yellow	0	left	left	GLO	none	close	0	intact	none	none	0	0	NaN	NaN	NaN	none	none	NaN	0	0
411	1	144	1	none	0.5	NaN	yellow	1	right	right	GLO	none	close	0	intact	none	none	0	0	NaN	NaN	NaN	none	none	NaN	0	0
411	1	145	1	none	0.5	NaN	yellow	0	left	left	GLO	none	far	0	intact	none	none	0	0	NaN	NaN	NaN	none	none	NaN	0	0
411	1	146	1	none	0.5	NaN	red	0	down	down	GLO	none	far	0	intact	none	none	0	0	NaN	NaN	NaN	none	none	NaN	0	0
411	1	147	1	none	0.5	NaN	red	0	down	down	GLO	none	far	0	intact	none	none	0	0	NaN	NaN	NaN	none	none	NaN	0	0
411	1	148	1	none	0.5	NaN	yellow	0	left	left	GLO	none	far	0	intact	none	none	0	0	NaN	NaN	NaN	none	none	NaN	0	0
411	1	149	1	none	0.5	NaN	green	0	right	right	GLO	none	close	0	intact	none	none	0	0	NaN	NaN	NaN	none	none	NaN	0	0
411	1	150	1	none	0.5	NaN	blue	1	left	left	GLO	none	far	0	intact	none	none	0	0	NaN	NaN	NaN	none	none	NaN	0	0
411	1	151	1	none	0.5	NaN	red	0	down	down	GLO	none	far	0	intact	none	none	0	0	NaN	NaN	NaN	none	none	NaN	0	0
411	1	152	1	none	0.5	NaN	red	0	down	down	GLO	none	far	0	intact	none	none	0	0	NaN	NaN	NaN	none	none	NaN	0	0
411	1	153	1	none	0.5	NaN	blue	1	right	right	GLO	none	close	0	intact	none	none	0	0	NaN	NaN	NaN	none	none	NaN	0	0
411	1	154	1	none	0.5	NaN	yellow	1	down	down	GLO	none	far	0	intact	none	none	0	0	NaN	NaN	NaN	none	none	NaN	0	0
411	1	155	1	none	0.5	NaN	green	0	right	right	GLO	none	far	0	intact	none	none	0	0	NaN	NaN	NaN	none	none	NaN	0	0
411	1	156	1	none	0.5	NaN	red	0	down	down	GLO	none	close	0	intact	none	none	0	0	NaN	NaN	NaN	none	none	NaN	0	0
411	1	157	1	none	0.5	NaN	yellow	0	left	left	GLO	none	close	0	intact	none	none	0	0	NaN	NaN	NaN	none	none	NaN	0	0
411	1	158	1	none	0.5	NaN	blue	0	up	up	GLO	none	close	0	intact	none	none	0	0	NaN	NaN	NaN	none	none	NaN	0	0
411	1	159	1	none	0.5	NaN	red	1	right	right	GLO	none	close	0	intact	none	none	0	0	NaN	NaN	NaN	none	none	NaN	0	0
411	1	160	1	none	0.5	NaN	green	0	right	right	GLO	none	close	0	intact	none	none	0	0	NaN	NaN	NaN	none	none	NaN	0	0
411	1	161	1	none	0.5	NaN	red	1	left	left	GLO	none	far	0	intact	none	none	0	0	NaN	NaN	NaN	none	none	NaN	0	0
411	1	162	1	none	0.5	NaN	blue	0	up	up	GLO	none	close	0	intact	none	none	0	0	NaN	NaN	NaN	none	none	NaN	0	0
411	1	163	1	none	0.5	NaN	green	0	right	right	GLO	none	far	0	intact	none	none	0	0	NaN	NaN	NaN	none	none	NaN	0	0
411	1	164	1	none	0.5	NaN	yellow	1	down	down	GLO	none	close	0	intact	none	none	0	0	NaN	NaN	NaN	none	none	NaN	0	0
411	1	165	1	none	0.5	NaN	red	0	down	down	GLO	none	far	0	intact	none	none	0	0	NaN	NaN	NaN	none	none	NaN	0	0
411	1	166	1	none	0.5	NaN	yellow	0	left	left	GLO	none	far	0	intact	none	none	0	0	NaN	NaN	NaN	none	none	NaN	0	0
411	1	167	1	none	0.5	NaN	yellow	1	down	down	GLO	none	far	0	intact	none	none	0	0	NaN	NaN	NaN	none	none	NaN	0	0
411	1	168	1	none	0.5	NaN	green	0	right	right	GLO	none	far	0	intact	none	none	0	0	NaN	NaN	NaN	none	none	NaN	0	0
411	1	169	1	none	0.5	NaN	green	0	right	right	GLO	none	far	0	intact	none	none	0	0	NaN	NaN	NaN	none	none	NaN	0	0
411	1	170	1	none	0.5	NaN	blue	1	right	right	GLO	none	close	0	intact	none	none	0	0	NaN	NaN	NaN	none	none	NaN	0	0
411	1	171	1	none	0.5	NaN	yellow	1	right	right	GLO	none	far	0	intact	none	none	0	0	NaN	NaN	NaN	none	none	NaN	0	0
411	1	172	1	none	0.5	NaN	yellow	1	down	down	GLO	none	close	0	intact	none	none	0	0	NaN	NaN	NaN	none	none	NaN	0	0
411	1	173	1	none	0.5	NaN	green	1	left	left	GLO	none	far	0	intact	none	none	0	0	NaN	NaN	NaN	none	none	NaN	0	0
411	1	174	1	none	0.5	NaN	green	0	right	right	GLO	none	far	0	intact	none	none	0	0	NaN	NaN	NaN	none	none	NaN	0	0
411	1	175	1	none	0.5	NaN	yellow	0	left	left	GLO	none	close	0	intact	none	none	0	0	NaN	NaN	NaN	none	none	NaN	0	0
411	1	176	1	none	0.5	NaN	red	1	left	left	GLO	none	far	0	intact	none	none	0	0	NaN	NaN	NaN	none	none	NaN	0	0
411	1	177	1	none	0.5	NaN	yellow	1	right	right	GLO	none	far	0	intact	none	none	0	0	NaN	NaN	NaN	none	none	NaN	0	0
411	1	178	1	none	0.5	NaN	yellow	0	left	left	GLO	none	far	0	intact	none	none	0	0	NaN	NaN	NaN	none	none	NaN	0	0
411	1	179	1	none	0.5	NaN	green	0	right	right	GLO	none	far	0	intact	none	none	0	0	NaN	NaN	NaN	none	none	NaN	0	0
411	1	180	1	none	0.5	NaN	green	0	right	right	GLO	none	far	0	intact	none	none	0	0	NaN	NaN	NaN	none	none	NaN	0	0
411	1	181	1	none	0.5	NaN	green	0	right	right	GLO	none	far	0	intact	none	none	0	0	NaN	NaN	NaN	none	none	NaN	0	0
411	1	182	1	none	0.5	NaN	red	0	down	down	GLO	none	far	0	intact	none	none	0	0	NaN	NaN	NaN	none	none	NaN	0	0
411	1	183	1	none	0.5	NaN	red	1	right	right	GLO	none	close	0	intact	none	none	0	0	NaN	NaN	NaN	none	none	NaN	0	0
411	1	184	1	none	0.5	NaN	red	1	right	right	GLO	none	close	0	intact	none	none	0	0	NaN	NaN	NaN	none	none	NaN	0	0
411	1	185	1	none	0.5	NaN	green	0	right	right	GLO	none	far	0	intact	none	none	0	0	NaN	NaN	NaN	none	none	NaN	0	0
411	1	186	1	none	0.5	NaN	red	1	up	up	GLO	none	close	0	intact	none	none	0	0	NaN	NaN	NaN	none	none	NaN	0	0
411	1	187	1	none	0.5	NaN	yellow	1	down	down	GLO	none	far	0	intact	none	none	0	0	NaN	NaN	NaN	none	none	NaN	0	0
411	1	188	1	none	0.5	NaN	green	1	down	down	GLO	none	far	0	intact	none	none	0	0	NaN	NaN	NaN	none	none	NaN	0	0
411	1	189	1	none	0.5	NaN	green	0	right	right	GLO	none	far	0	intact	none	none	0	0	NaN	NaN	NaN	none	none	NaN	0	0
411	1	190	1	none	0.5	NaN	blue	0	up	up	GLO	none	far	0	intact	none	none	0	0	NaN	NaN	NaN	none	none	NaN	0	0
411	1	191	1	none	0.5	NaN	yellow	0	left	left	GLO	none	far	0	intact	none	none	0	0	NaN	NaN	NaN	none	none	NaN	0	0
411	1	192	1	none	0.5	NaN	yellow	1	down	down	GLO	none	close	0	intact	none	none	0	0	NaN	NaN	NaN	none	none	NaN	0	0
411	1	193	1	none	0.5	NaN	red	1	left	left	GLO	none	far	0	intact	none	none	0	0	NaN	NaN	NaN	none	none	NaN	0	0
411	1	194	1	none	0.5	NaN	blue	1	down	down	GLO	none	close	0	intact	none	none	0	0	NaN	NaN	NaN	none	none	NaN	0	0
411	1	195	1	none	0.5	NaN	green	0	right	right	GLO	none	far	0	intact	none	none	0	0	NaN	NaN	NaN	none	none	NaN	0	0
411	1	196	1	none	0.5	NaN	red	1	up	up	GLO	none	far	0	intact	none	none	0	0	NaN	NaN	NaN	none	none	NaN	0	0
411	1	197	1	none	0.5	NaN	green	0	right	right	GLO	none	close	0	intact	none	none	0	0	NaN	NaN	NaN	none	none	NaN	0	0
411	1	198	1	none	0.5	NaN	blue	0	up	up	GLO	none	close	0	intact	none	none	0	0	NaN	NaN	NaN	none	none	NaN	0	0
411	1	199	1	none	0.5	NaN	blue	0	up	up	GLO	none	close	0	intact	none	none	0	0	NaN	NaN	NaN	none	none	NaN	0	0
411	1	200	1	none	0.5	NaN	yellow	1	down	down	GLO	none	far	0	intact	none	none	0	0	NaN	NaN	NaN	none	none	NaN	0	0
411	1	201	1	none	0.5	NaN	blue	0	up	up	GLO	none	close	0	intact	none	none	0	0	NaN	NaN	NaN	none	none	NaN	0	0
411	1	202	1	none	0.5	NaN	red	1	up	up	GLO	none	far	0	intact	none	none	0	0	NaN	NaN	NaN	none	none	NaN	0	0
411	1	203	1	none	0.5	NaN	red	0	down	down	GLO	none	far	0	intact	none	none	0	0	NaN	NaN	NaN	none	none	NaN	0	0
411	1	204	1	none	0.5	NaN	red	1	right	right	GLO	none	close	0	intact	none	none	0	0	NaN	NaN	NaN	none	none	NaN	0	0
411	1	205	1	none	0.5	NaN	red	1	up	up	GLO	none	far	0	intact	none	none	0	0	NaN	NaN	NaN	none	none	NaN	0	0
411	1	206	1	none	0.5	NaN	blue	1	right	right	GLO	none	far	0	intact	none	none	0	0	NaN	NaN	NaN	none	none	NaN	0	0
411	1	207	1	none	0.5	NaN	blue	0	up	up	GLO	none	close	0	intact	none	none	0	0	NaN	NaN	NaN	none	none	NaN	0	0
411	1	208	1	none	0.5	NaN	yellow	1	right	right	GLO	none	far	0	intact	none	none	0	0	NaN	NaN	NaN	none	none	NaN	0	0
411	1	209	1	none	0.5	NaN	red	0	down	down	GLO	none	far	0	intact	none	none	0	0	NaN	NaN	NaN	none	none	NaN	0	0
411	1	210	1	none	0.5	NaN	green	0	right	right	GLO	none	close	0	intact	none	none	0	0	NaN	NaN	NaN	none	none	NaN	0	0
411	1	211	1	none	0.5	NaN	red	0	down	down	GLO	none	far	0	intact	none	none	0	0	NaN	NaN	NaN	none	none	NaN	0	0
411	1	212	1	none	0.5	NaN	blue	1	left	left	GLO	none	far	0	intact	none	none	0	0	NaN	NaN	NaN	none	none	NaN	0	0
411	1	213	1	none	0.5	NaN	yellow	0	left	left	GLO	none	close	0	intact	none	none	0	0	NaN	NaN	NaN	none	none	NaN	0	0
411	1	214	1	none	0.5	NaN	red	0	down	down	GLO	none	close	0	intact	none	none	0	0	NaN	NaN	NaN	none	none	NaN	0	0
411	1	215	1	none	0.5	NaN	green	1	up	up	GLO	none	far	0	intact	none	none	0	0	NaN	NaN	NaN	none	none	NaN	0	0
411	1	216	1	none	0.5	NaN	red	1	left	left	GLO	none	far	0	intact	none	none	0	0	NaN	NaN	NaN	none	none	NaN	0	0
411	1	217	1	none	0.5	NaN	blue	0	up	up	GLO	none	close	0	intact	none	none	0	0	NaN	NaN	NaN	none	none	NaN	0	0
411	1	218	1	none	0.5	NaN	yellow	1	down	down	GLO	none	far	0	intact	none	none	0	0	NaN	NaN	NaN	none	none	NaN	0	0
411	1	219	1	none	0.5	NaN	yellow	0	left	left	GLO	none	close	0	intact	none	none	0	0	NaN	NaN	NaN	none	none	NaN	0	0
411	1	220	1	none	0.5	NaN	red	1	up	up	GLO	none	far	0	intact	none	none	0	0	NaN	NaN	NaN	none	none	NaN	0	0
411	1	221	1	none	0.5	NaN	blue	1	left	left	GLO	none	far	0	intact	none	none	0	0	NaN	NaN	NaN	none	none	NaN	0	0
411	1	222	1	none	0.5	NaN	yellow	1	right	right	GLO	none	far	0	intact	none	none	0	0	NaN	NaN	NaN	none	none	NaN	0	0
411	1	223	1	none	0.5	NaN	yellow	0	left	left	GLO	none	far	0	intact	none	none	0	0	NaN	NaN	NaN	none	none	NaN	0	0
411	1	224	1	none	0.5	NaN	blue	1	down	down	GLO	none	far	0	intact	none	none	0	0	NaN	NaN	NaN	none	none	NaN	0	0
411	1	225	1	none	0.5	NaN	yellow	0	left	left	GLO	none	far	0	intact	none	none	0	0	NaN	NaN	NaN	none	none	NaN	0	0
411	1	226	1	none	0.5	NaN	green	1	up	up	GLO	none	close	0	intact	none	none	0	0	NaN	NaN	NaN	none	none	NaN	0	0
411	1	227	1	none	0.5	NaN	green	1	up	up	GLO	none	far	0	intact	none	none	0	0	NaN	NaN	NaN	none	none	NaN	0	0
411	1	228	1	none	0.5	NaN	blue	1	right	right	GLO	none	far	0	intact	none	none	0	0	NaN	NaN	NaN	none	none	NaN	0	0
411	1	229	1	none	0.5	NaN	blue	0	up	up	GLO	none	close	0	intact	none	none	0	0	NaN	NaN	NaN	none	none	NaN	0	0
411	1	230	1	none	0.5	NaN	blue	1	down	down	GLO	none	close	0	intact	none	none	0	0	NaN	NaN	NaN	none	none	NaN	0	0
411	1	231	1	none	0.5	NaN	yellow	0	left	left	GLO	none	close	0	intact	none	none	0	0	NaN	NaN	NaN	none	none	NaN	0	0
411	1	232	1	none	0.5	NaN	yellow	1	right	right	GLO	none	close	0	intact	none	none	0	0	NaN	NaN	NaN	none	none	NaN	0	0
411	1	233	1	none	0.5	NaN	blue	1	down	down	GLO	none	close	0	intact	none	none	0	0	NaN	NaN	NaN	none	none	NaN	0	0
411	1	234	1	none	0.5	NaN	yellow	1	down	down	GLO	none	close	0	intact	none	none	0	0	NaN	NaN	NaN	none	none	NaN	0	0
411	1	235	1	none	0.5	NaN	red	0	down	down	GLO	none	far	0	intact	none	none	0	0	NaN	NaN	NaN	none	none	NaN	0	0
411	1	236	1	none	0.5	NaN	blue	1	down	down	GLO	none	close	0	intact	none	none	0	0	NaN	NaN	NaN	none	none	NaN	0	0
411	1	237	1	none	0.5	NaN	yellow	1	down	down	GLO	none	far	0	intact	none	none	0	0	NaN	NaN	NaN	none	none	NaN	0	0
411	1	238	1	none	0.5	NaN	blue	1	right	right	GLO	none	close	0	intact	none	none	0	0	NaN	NaN	NaN	none	none	NaN	0	0
411	1	239	1	none	0.5	NaN	blue	0	up	up	GLO	none	far	0	intact	none	none	0	0	NaN	NaN	NaN	none	none	NaN	0	0
411	1	240	1	none	0.5	NaN	red	1	right	right	GLO	none	far	0	intact	none	none	0	0	NaN	NaN	NaN	none	none	NaN	0	0
411	1	241	1	none	0.5	NaN	blue	0	up	up	GLO	none	far	0	intact	none	none	0	0	NaN	NaN	NaN	none	none	NaN	0	0
411	1	242	1	none	0.5	NaN	yellow	1	right	right	GLO	none	close	0	intact	none	none	0	0	NaN	NaN	NaN	none	none	NaN	0	0
411	1	243	1	none	0.5	NaN	blue	1	down	down	GLO	none	far	0	intact	none	none	0	0	NaN	NaN	NaN	none	none	NaN	0	0
411	1	244	1	none	0.5	NaN	yellow	0	left	left	GLO	none	close	0	intact	none	none	0	0	NaN	NaN	NaN	none	none	NaN	0	0
411	1	245	1	none	0.5	NaN	blue	0	up	up	GLO	none	close	0	intact	none	none	0	0	NaN	NaN	NaN	none	none	NaN	0	0
411	1	246	1	none	0.5	NaN	yellow	0	left	left	GLO	none	far	0	intact	none	none	0	0	NaN	NaN	NaN	none	none	NaN	0	0
411	1	247	1	none	0.5	NaN	blue	0	up	up	GLO	none	close	0	intact	none	none	0	0	NaN	NaN	NaN	none	none	NaN	0	0
411	1	248	1	none	0.5	NaN	red	0	down	down	GLO	none	far	0	intact	none	none	0	0	NaN	NaN	NaN	none	none	NaN	0	0
411	1	249	1	none	0.5	NaN	yellow	1	up	up	GLO	none	far	0	intact	none	none	0	0	NaN	NaN	NaN	none	none	NaN	0	0
411	1	250	1	none	0.5	NaN	yellow	1	down	down	GLO	none	far	0	intact	none	none	0	0	NaN	NaN	NaN	none	none	NaN	0	0
411	1	251	1	none	0.5	NaN	green	0	right	right	GLO	none	far	0	intact	none	none	0	0	NaN	NaN	NaN	none	none	NaN	0	0
411	1	252	1	none	0.5	NaN	blue	0	up	up	GLO	none	far	0	intact	none	none	0	0	NaN	NaN	NaN	none	none	NaN	0	0
411	1	253	1	none	0.5	NaN	blue	1	down	down	GLO	none	far	0	intact	none	none	0	0	NaN	NaN	NaN	none	none	NaN	0	0
411	1	254	1	none	0.5	NaN	blue	0	up	up	GLO	none	far	0	intact	none	none	0	0	NaN	NaN	NaN	none	none	NaN	0	0
411	1	255	1	none	0.5	NaN	red	0	down	down	GLO	none	far	0	intact	none	none	0	0	NaN	NaN	NaN	none	none	NaN	0	0
411	1	256	1	none	0.5	NaN	blue	1	down	down	GLO	none	far	0	intact	none	none	0	0	NaN	NaN	NaN	none	none	NaN	0	0
411	1	257	1	none	0.5	NaN	red	0	down	down	GLO	none	close	0	intact	none	none	0	0	NaN	NaN	NaN	none	none	NaN	0	0
411	1	258	1	none	0.5	NaN	red	0	down	down	GLO	none	close	0	intact	none	none	0	0	NaN	NaN	NaN	none	none	NaN	0	0
411	1	259	1	none	0.5	NaN	yellow	0	left	left	GLO	none	far	0	intact	none	none	0	0	NaN	NaN	NaN	none	none	NaN	0	0
411	1	260	1	none	0.5	NaN	blue	1	down	down	GLO	none	close	0	intact	none	none	0	0	NaN	NaN	NaN	none	none	NaN	0	0
411	1	261	1	none	0.5	NaN	red	0	down	down	GLO	none	far	0	intact	none	none	0	0	NaN	NaN	NaN	none	none	NaN	0	0
411	1	262	1	none	0.5	NaN	red	1	up	up	GLO	none	close	0	intact	none	none	0	0	NaN	NaN	NaN	none	none	NaN	0	0
411	1	263	1	none	0.5	NaN	blue	1	down	down	GLO	none	close	0	intact	none	none	0	0	NaN	NaN	NaN	none	none	NaN	0	0
411	1	264	1	none	0.5	NaN	blue	0	up	up	GLO	none	far	0	intact	none	none	0	0	NaN	NaN	NaN	none	none	NaN	0	0
411	1	265	1	none	0.5	NaN	yellow	1	up	up	GLO	none	far	0	intact	none	none	0	0	NaN	NaN	NaN	none	none	NaN	0	0
411	1	266	1	none	0.5	NaN	blue	0	up	up	GLO	none	close	0	intact	none	none	0	0	NaN	NaN	NaN	none	none	NaN	0	0
411	1	267	1	none	0.5	NaN	red	0	down	down	GLO	none	far	0	intact	none	none	0	0	NaN	NaN	NaN	none	none	NaN	0	0
411	1	268	1	none	0.5	NaN	green	0	right	right	GLO	none	close	0	intact	none	none	0	0	NaN	NaN	NaN	none	none	NaN	0	0
411	1	269	1	none	0.5	NaN	yellow	1	down	down	GLO	none	far	0	intact	none	none	0	0	NaN	NaN	NaN	none	none	NaN	0	0
411	1	270	1	none	0.5	NaN	blue	1	right	right	GLO	none	far	0	intact	none	none	0	0	NaN	NaN	NaN	none	none	NaN	0	0
411	1	271	1	none	0.5	NaN	blue	1	right	right	GLO	none	far	0	intact	none	none	0	0	NaN	NaN	NaN	none	none	NaN	0	0
411	1	272	1	none	0.5	NaN	blue	0	up	up	GLO	none	close	0	intact	none	none	0	0	NaN	NaN	NaN	none	none	NaN	0	0
411	1	273	1	none	0.5	NaN	yellow	1	up	up	GLO	none	far	0	intact	none	none	0	0	NaN	NaN	NaN	none	none	NaN	0	0
411	1	274	1	none	0.5	NaN	red	1	left	left	GLO	none	close	0	intact	none	none	0	0	NaN	NaN	NaN	none	none	NaN	0	0
411	1	275	1	none	0.5	NaN	red	0	down	down	GLO	none	close	0	intact	none	none	0	0	NaN	NaN	NaN	none	none	NaN	0	0
411	1	276	1	none	0.5	NaN	yellow	1	down	down	GLO	none	close	0	intact	none	none	0	0	NaN	NaN	NaN	none	none	NaN	0	0
411	1	277	1	none	0.5	NaN	blue	1	right	right	GLO	none	far	0	intact	none	none	0	0	NaN	NaN	NaN	none	none	NaN	0	0
411	2	1	1	auto	1.5	1.51608	yellow	0	left	left	GLO	left	far	0	intact	none	none	0	0	0.69323	0	1	left	yellow	1	0	0
411	2	2	1	auto	1.5	1.51438	yellow	0	left	left	GLO	left	far	1	intact	intact	f641fc6b-8728-47c9-b90c-11b1af7f196e_fps_avg_aud.mp4	1	0	0.680683	0	1	left	yellow	1	0	0
411	2	3	1	auto	1.5	1.51245	blue	1	right	right	GLO	right	far	1	intact	intact	june_19_2015_fps_avg_aud.mp4	1	78	1.1854	0.337487	2	up	blue	1	0	0
411	2	4	1	auto	1.5	1.51528	green	1	down	down	GLO	right	close	1	intact	intact	37d023e5-2b94-437c-b04e-88100eb5850b_fps_avg_aud.mp4	1	77	0.892893	0.343925	1	right	green	1	0	0
411	2	5	1	auto	1.5	1.51006	blue	0	up	up	GLO	right	far	1	intact	intact	779aa7ea-420b-4390-a149-5f24d3acfbfd_fps_avg_aud.mp4	1	59	1.11537	0.275872	1	up	blue	1	0	0
411	2	6	1	auto	1.5	1.51151	red	1	up	up	GLO	left	far	0	intact	none	none	0	0	0.831846	0	1	down	red	1	0	0
411	2	7	1	auto	1.5	1.51142	yellow	0	left	left	GLO	right	far	1	intact	intact	e9f06abd-24bb-46d2-ac8b-3a473a758d7e_fps_avg_aud.mp4	1	25	0.815512	0.125534	1	right	green	0	0	0
411	2	8	1	auto	1.5	1.51182	blue	1	down	down	GLO	right	close	0	intact	none	none	0	0	0.764117	0	1	up	blue	1	0	0
411	2	9	1	auto	1.5	1.51289	red	0	down	down	GLO	right	close	1	intact	intact	de76edf3-7c24-4386-8e6c-01dd4c15291d_fps_avg_aud.mp4	1	7	0.715094	0.0334734	1	down	red	1	0	0
411	2	10	1	auto	1.5	1.51037	blue	0	up	up	GLO	right	far	1	intact	intact	August_3_2016_fps_avg_aud.mp4	1	12	0.958012	0.0412628	1	up	blue	1	0	0
411	2	11	1	auto	1.5	1.51395	blue	0	up	up	GLO	left	close	1	intact	intact	1bfb8d40-5675-4acc-87b4-a7f11b6242ea_fps_avg_aud.mp4	1	44	0.748806	0.232982	1	up	blue	1	0	0
411	2	12	1	auto	1.5	1.5132	green	0	right	right	GLO	right	close	0	intact	none	none	0	0	1.36171	0	1	right	green	1	0	0
411	2	13	1	auto	0.5	0.514177	red	1	up	up	GLO	right	close	1	intact	intact	Feb28_fps_avg_aud.mp4	1	0	0.780194	0	1	down	red	1	0	0
411	2	14	1	auto	0.5	0.510868	blue	0	up	up	GLO	left	far	1	intact	intact	5b8d6efa-e1ab-4dc5-b720-51d467e90859_fps_avg_aud.mp4	1	0	1.25923	0	1	up	blue	1	0	0
411	2	15	1	auto	0.5	0.512839	green	1	left	left	GLO	left	far	1	intact	intact	31c3bae2-faf4-4718-b53b-2e88624b3fa5_fps_avg_aud.mp4	1	27	0.934439	0.102825	1	right	green	1	0	0
411	2	16	1	auto	0.5	0.511452	yellow	1	down	down	GLO	right	close	1	intact	intact	Mar3_fps_avg_aud.mp4	1	0	0.917069	0	1	left	yellow	1	0	0
411	2	17	1	auto	0.5	0.513538	yellow	0	left	left	GLO	left	far	0	intact	none	none	0	0	0.696809	0	1	left	yellow	1	0	0
411	2	18	1	auto	0.5	0.51185	green	0	right	right	GLO	left	close	1	intact	intact	f9a11fba-d584-4a74-ba4f-e5eb4ac62b73_fps_avg_aud.mp4	1	7	1.04754	0.0330631	1	right	green	1	0	0
411	2	19	1	auto	0.5	0.514266	blue	0	up	up	GLO	left	close	1	intact	intact	May15_fps_avg_aud.mp4	1	2	0.791051	0.00292799	1	up	blue	1	0	0
411	2	20	1	auto	0.5	0.512514	yellow	1	up	up	GLO	right	far	1	intact	intact	caf1693c-0eef-47ff-aee9-5348af86759e_fps_avg_aud.mp4	1	0	1.03168	0	1	left	yellow	1	0	0
411	2	21	1	auto	0.5	0.514242	green	0	right	right	GLO	left	far	1	intact	intact	July23_fps_avg_aud.mp4	1	8	1.64741	0.0290132	1	left	yellow	0	0	0
411	2	22	1	auto	0.5	0.515169	green	1	down	down	GLO	left	far	1	intact	intact	jun14_fps_avg_aud.mp4	1	0	0.791065	0	1	left	yellow	0	0	0
411	2	23	1	auto	0.5	0.514979	yellow	1	up	up	GLO	right	close	1	intact	intact	may_28_2015_fps_avg_aud.mp4	1	50	1.46173	0.213331	1	left	yellow	1	0	0
411	2	24	1	auto	0.5	0.513244	yellow	0	left	left	GLO	right	close	0	intact	none	none	0	0	0.564088	0	1	left	yellow	1	0	0
411	2	25	1	auto	0.5	0.510554	red	0	down	down	GLO	left	close	1	intact	intact	fd318c50-e133-4dc8-918b-b97094aebdf0_fps_avg_aud.mp4	1	159	1.18206	0.695521	1	down	red	1	0	0
411	2	26	1	auto	0.5	0.512438	green	1	left	left	GLO	right	far	1	intact	intact	11bc07f6-cbc9-48b9-a240-792e373d6a2a_fps_avg_aud.mp4	1	207	1.73865	0.836965	2	right	green	1	0	0
411	2	27	1	auto	0.5	0.515452	red	1	right	right	GLO	left	far	1	intact	intact	0fb53cd4-6c5a-4fee-a2f6-e37a34d597fc_fps_avg_aud.mp4	1	25	0.830951	0.116134	1	down	red	1	0	0
411	2	28	1	auto	0.5	NaN	yellow	1	right	right	GLO	none	far	1	intact	intact	d908683d-e7f6-43aa-ac1d-27222b281fc0_fps_avg_aud.mp4	0	0	NaN	NaN	NaN	none	none	NaN	0	0
411	2	29	1	auto	0.5	NaN	blue	1	right	right	GLO	none	close	0	intact	none	none	0	0	NaN	NaN	NaN	none	none	NaN	0	0
411	2	30	1	auto	0.5	NaN	yellow	1	down	down	GLO	none	close	0	intact	none	none	0	0	NaN	NaN	NaN	none	none	NaN	0	0
411	2	31	1	auto	0.5	NaN	yellow	1	right	right	GLO	none	far	0	intact	none	none	0	0	NaN	NaN	NaN	none	none	NaN	0	0
411	2	32	1	auto	0.5	NaN	green	0	right	right	GLO	none	far	1	intact	intact	Aug17_fps_avg_aud.mp4	0	0	NaN	NaN	NaN	none	none	NaN	0	0
411	2	33	1	auto	0.5	NaN	yellow	0	left	left	GLO	none	close	1	intact	intact	b151d8a6-cbea-4f58-ab0f-6c21bc545c88_fps_avg_aud.mp4	0	0	NaN	NaN	NaN	none	none	NaN	0	0
411	2	34	1	auto	0.5	NaN	blue	1	right	right	GLO	none	far	1	intact	intact	5b49bfdf-720d-437c-bb4f-da8fd9a14bdf_fps_avg_aud.mp4	0	0	NaN	NaN	NaN	none	none	NaN	0	0
411	2	35	1	auto	0.5	NaN	yellow	1	down	down	GLO	none	far	1	intact	intact	7ed41b90-fac5-42bc-94a9-a4d7f021d578_fps_avg_aud.mp4	0	0	NaN	NaN	NaN	none	none	NaN	0	0
411	2	36	1	auto	0.5	NaN	green	1	up	up	GLO	none	close	0	intact	none	none	0	0	NaN	NaN	NaN	none	none	NaN	0	0
411	2	37	1	auto	0.5	NaN	green	0	right	right	GLO	none	close	1	intact	intact	September_2016_(3)_fps_avg_aud.mp4	0	0	NaN	NaN	NaN	none	none	NaN	0	0
411	2	38	1	auto	0.5	NaN	yellow	1	down	down	GLO	none	close	1	intact	intact	Jun1_fps_avg_aud.mp4	0	0	NaN	NaN	NaN	none	none	NaN	0	0
411	2	39	1	auto	0.5	NaN	green	1	up	up	GLO	none	close	0	intact	none	none	0	0	NaN	NaN	NaN	none	none	NaN	0	0
411	2	40	1	auto	0.5	NaN	yellow	0	left	left	GLO	none	close	0	intact	none	none	0	0	NaN	NaN	NaN	none	none	NaN	0	0
411	2	41	1	auto	0.5	NaN	blue	1	left	left	GLO	none	close	1	intact	intact	Mar30_fps_avg_aud.mp4	0	0	NaN	NaN	NaN	none	none	NaN	0	0
411	2	42	1	auto	0.5	NaN	yellow	1	up	up	GLO	none	far	1	intact	intact	6ce71e9b-76db-4300-af8c-23df366c03d0_fps_avg_aud.mp4	0	0	NaN	NaN	NaN	none	none	NaN	0	0
411	2	43	1	auto	0.5	NaN	red	0	down	down	GLO	none	far	1	intact	intact	June_17_2015_fps_avg_aud.mp4	0	0	NaN	NaN	NaN	none	none	NaN	0	0
411	2	44	1	auto	0.5	NaN	green	0	right	right	GLO	none	far	1	intact	intact	e57a35d6-39b7-4b9c-a4a1-844e0bebd3c1_fps_avg_aud.mp4	0	0	NaN	NaN	NaN	none	none	NaN	0	0
411	2	45	1	auto	0.5	NaN	blue	0	up	up	GLO	none	close	0	intact	none	none	0	0	NaN	NaN	NaN	none	none	NaN	0	0
411	2	46	1	auto	0.5	NaN	blue	1	down	down	GLO	none	far	0	intact	none	none	0	0	NaN	NaN	NaN	none	none	NaN	0	0
411	2	47	1	auto	0.5	NaN	yellow	0	left	left	GLO	none	far	0	intact	none	none	0	0	NaN	NaN	NaN	none	none	NaN	0	0
411	2	48	1	auto	0.5	NaN	yellow	1	down	down	GLO	none	far	1	intact	intact	May7_fps_avg_aud.mp4	0	0	NaN	NaN	NaN	none	none	NaN	0	0
411	2	49	1	auto	0.5	NaN	blue	1	left	left	GLO	none	far	1	intact	intact	0634b486-cb5f-4c95-88ac-759458166474_fps_avg_aud.mp4	0	0	NaN	NaN	NaN	none	none	NaN	0	0
411	2	50	1	auto	0.5	NaN	blue	1	right	right	GLO	none	close	1	intact	intact	jan31_2016_fps_avg_aud.mp4	0	0	NaN	NaN	NaN	none	none	NaN	0	0
411	2	51	1	auto	0.5	NaN	yellow	0	left	left	GLO	none	close	1	intact	intact	a24b6226-d6e8-4655-b874-d79fefacec8c_fps_avg_aud.mp4	0	0	NaN	NaN	NaN	none	none	NaN	0	0
411	2	52	1	auto	0.5	NaN	green	0	right	right	GLO	none	far	1	intact	intact	8131cc16-56a9-45d8-8dab-20ead5938e0a_fps_avg_aud.mp4	0	0	NaN	NaN	NaN	none	none	NaN	0	0
411	2	53	1	auto	0.5	NaN	yellow	0	left	left	GLO	none	close	1	intact	intact	2925915c-d027-4d48-be00-616870d6d158_fps_avg_aud.mp4	0	0	NaN	NaN	NaN	none	none	NaN	0	0
411	2	54	1	auto	0.5	NaN	blue	1	left	left	GLO	none	close	1	intact	intact	Nov19_fps_avg_aud.mp4	0	0	NaN	NaN	NaN	none	none	NaN	0	0
411	2	55	1	auto	0.5	NaN	yellow	0	left	left	GLO	none	close	1	intact	intact	030a135d-605a-42ea-902a-469aeded471a_fps_avg_aud.mp4	0	0	NaN	NaN	NaN	none	none	NaN	0	0
411	2	56	1	auto	0.5	NaN	red	0	down	down	GLO	none	far	1	intact	intact	Sep22_fps_avg_aud.mp4	0	0	NaN	NaN	NaN	none	none	NaN	0	0
411	2	57	1	auto	0.5	NaN	green	0	right	right	GLO	none	far	1	intact	intact	21ca1f40-8184-4506-9096-1849a40e04e2_fps_avg_aud.mp4	0	0	NaN	NaN	NaN	none	none	NaN	0	0
411	2	58	1	auto	0.5	NaN	red	0	down	down	GLO	none	close	1	intact	intact	January_2016_(1)_fps_avg_aud.mp4	0	0	NaN	NaN	NaN	none	none	NaN	0	0
411	2	59	1	auto	0.5	NaN	blue	0	up	up	GLO	none	far	1	intact	intact	May8_fps_avg_aud.mp4	0	0	NaN	NaN	NaN	none	none	NaN	0	0
411	2	60	1	auto	0.5	NaN	yellow	0	left	left	GLO	none	close	1	intact	intact	Nov28_fps_avg_aud.mp4	0	0	NaN	NaN	NaN	none	none	NaN	0	0
411	2	61	1	auto	0.5	NaN	yellow	0	left	left	GLO	none	close	1	intact	intact	May_2016_fps_avg_aud.mp4	0	0	NaN	NaN	NaN	none	none	NaN	0	0
411	2	62	1	auto	0.5	NaN	blue	0	up	up	GLO	none	close	1	intact	intact	592c03b4-010b-4f30-8521-fbf254e827b0_fps_avg_aud.mp4	0	0	NaN	NaN	NaN	none	none	NaN	0	0
411	2	63	1	auto	0.5	NaN	blue	0	up	up	GLO	none	close	1	intact	intact	9bd7a199-78f1-4f14-9fde-3a11c0ebd236_fps_avg_aud.mp4	0	0	NaN	NaN	NaN	none	none	NaN	0	0
411	2	64	1	auto	0.5	NaN	green	1	up	up	GLO	none	far	1	intact	intact	de0e4ce1-0f87-4077-b69c-578049fe4691_fps_avg_aud.mp4	0	0	NaN	NaN	NaN	none	none	NaN	0	0
411	2	65	1	auto	0.5	NaN	blue	0	up	up	GLO	none	far	1	intact	intact	4492b756-14ac-4694-8c38-fa7503b864e1_fps_avg_aud.mp4	0	0	NaN	NaN	NaN	none	none	NaN	0	0
411	2	66	1	auto	0.5	NaN	yellow	1	up	up	GLO	none	close	1	intact	intact	a66e9cf1-4573-4450-a822-0bcc91474968_fps_avg_aud.mp4	0	0	NaN	NaN	NaN	none	none	NaN	0	0
411	2	67	1	auto	0.5	NaN	green	1	down	down	GLO	none	close	1	intact	intact	Sep7_fps_avg_aud.mp4	0	0	NaN	NaN	NaN	none	none	NaN	0	0
411	2	68	1	auto	0.5	NaN	red	0	down	down	GLO	none	close	1	intact	intact	34cddff1-7a1a-4e71-be66-8a745a1d42f4_fps_avg_aud.mp4	0	0	NaN	NaN	NaN	none	none	NaN	0	0
411	2	69	1	auto	0.5	NaN	blue	1	down	down	GLO	none	close	0	intact	none	none	0	0	NaN	NaN	NaN	none	none	NaN	0	0
411	2	70	1	auto	0.5	NaN	red	1	up	up	GLO	none	far	0	intact	none	none	0	0	NaN	NaN	NaN	none	none	NaN	0	0
411	2	71	1	auto	0.5	NaN	yellow	0	left	left	GLO	none	close	1	intact	intact	may_25_2015_fps_avg_aud.mp4	0	0	NaN	NaN	NaN	none	none	NaN	0	0
411	2	72	1	auto	0.5	NaN	green	1	left	left	GLO	none	close	1	intact	intact	b2b0c46b-c908-4752-b5cb-16abe9f2c872_fps_avg_aud.mp4	0	0	NaN	NaN	NaN	none	none	NaN	0	0
411	2	73	1	auto	0.5	NaN	yellow	1	up	up	GLO	none	far	1	intact	intact	79665cdb-61c8-40fb-9ffc-0682e57caf2f_fps_avg_aud.mp4	0	0	NaN	NaN	NaN	none	none	NaN	0	0
411	2	74	1	auto	0.5	NaN	yellow	1	right	right	GLO	none	close	1	intact	intact	647890e0-5689-43cf-86ab-b37e61076130_fps_avg_aud.mp4	0	0	NaN	NaN	NaN	none	none	NaN	0	0
411	2	75	1	auto	0.5	NaN	blue	0	up	up	GLO	none	far	1	intact	intact	Jun8_fps_avg_aud.mp4	0	0	NaN	NaN	NaN	none	none	NaN	0	0
411	2	76	1	auto	0.5	NaN	blue	0	up	up	GLO	none	close	1	intact	intact	ac670a32-9758-4aa8-b876-775cfe4f2e47_fps_avg_aud.mp4	0	0	NaN	NaN	NaN	none	none	NaN	0	0
411	2	77	1	auto	0.5	NaN	red	0	down	down	GLO	none	close	1	intact	intact	8021b6b2-93f5-4b8a-981e-576768624e6e_fps_avg_aud.mp4	0	0	NaN	NaN	NaN	none	none	NaN	0	0
411	2	78	1	auto	0.5	NaN	green	1	down	down	GLO	none	far	0	intact	none	none	0	0	NaN	NaN	NaN	none	none	NaN	0	0
411	2	79	1	auto	0.5	NaN	yellow	1	down	down	GLO	none	far	0	intact	none	none	0	0	NaN	NaN	NaN	none	none	NaN	0	0
411	2	80	1	auto	0.5	NaN	green	0	right	right	GLO	none	far	1	intact	intact	Oct7_fps_avg_aud.mp4	0	0	NaN	NaN	NaN	none	none	NaN	0	0
411	2	81	1	auto	0.5	NaN	blue	0	up	up	GLO	none	far	0	intact	none	none	0	0	NaN	NaN	NaN	none	none	NaN	0	0
411	2	82	1	auto	0.5	NaN	red	1	left	left	GLO	none	close	1	intact	intact	fb42eb92-ecec-41cf-8ef3-e4a7b0a219f1_fps_avg_aud.mp4	0	0	NaN	NaN	NaN	none	none	NaN	0	0
411	2	83	1	auto	0.5	NaN	blue	1	left	left	GLO	none	far	0	intact	none	none	0	0	NaN	NaN	NaN	none	none	NaN	0	0
411	2	84	1	auto	0.5	NaN	green	1	up	up	GLO	none	close	0	intact	none	none	0	0	NaN	NaN	NaN	none	none	NaN	0	0
411	2	85	1	auto	0.5	NaN	red	0	down	down	GLO	none	far	1	intact	intact	f08bb9b7-0409-482c-9084-de15481ab2b3_fps_avg_aud.mp4	0	0	NaN	NaN	NaN	none	none	NaN	0	0
411	2	86	1	auto	0.5	NaN	yellow	0	left	left	GLO	none	far	1	intact	intact	Dec25_fps_avg_aud.mp4	0	0	NaN	NaN	NaN	none	none	NaN	0	0
411	2	87	1	auto	0.5	NaN	green	1	left	left	GLO	none	close	1	intact	intact	cc1b0f3f-4b74-4315-bb6b-f6c5624cbee1(1)_fps_avg_aud.mp4	0	0	NaN	NaN	NaN	none	none	NaN	0	0
411	2	88	1	auto	0.5	NaN	red	1	right	right	GLO	none	close	1	intact	intact	4d7a8a8c-063f-4a89-bd24-c32713b6ffa7_fps_avg_aud.mp4	0	0	NaN	NaN	NaN	none	none	NaN	0	0
411	2	89	1	auto	0.5	NaN	red	0	down	down	GLO	none	far	1	intact	intact	bfb38b58-a56a-427a-a233-3b6663beed7c_fps_avg_aud.mp4	0	0	NaN	NaN	NaN	none	none	NaN	0	0
411	2	90	1	auto	0.5	NaN	blue	1	right	right	GLO	none	close	0	intact	none	none	0	0	NaN	NaN	NaN	none	none	NaN	0	0
411	2	91	1	auto	0.5	NaN	yellow	0	left	left	GLO	none	close	1	intact	intact	August_2016_fps_avg_aud.mp4	0	0	NaN	NaN	NaN	none	none	NaN	0	0
411	2	92	1	auto	0.5	NaN	yellow	1	down	down	GLO	none	far	1	intact	intact	af8a1933-c829-43c1-8393-4abd55081a1d_fps_avg_aud.mp4	0	0	NaN	NaN	NaN	none	none	NaN	0	0
411	2	93	1	auto	0.5	NaN	blue	1	left	left	GLO	none	far	1	intact	intact	f001cded-b985-4905-a6ac-c1793ff8fab2_fps_avg_aud.mp4	0	0	NaN	NaN	NaN	none	none	NaN	0	0
411	3	1	1	self	1.5	1.51676	yellow	0	left	left	GLO	right	close	1	intact	intact	July27_fps_avg_aud.mp4	1	56	1.43099	0.220209	2	left	yellow	1	0	0
411	3	2	1	self	1.5	1.512	yellow	0	left	left	GLO	right	far	1	intact	intact	October_20_2016_fps_avg_aud.mp4	0	0	0.782463	0	1	left	yellow	1	0	0
411	3	3	1	self	1.5	1.51393	green	0	right	right	GLO	left	far	1	intact	intact	Jun17_fps_avg_aud.mp4	0	0	0.974828	0	1	right	green	1	0	0
411	3	4	1	self	1.5	1.51083	green	0	right	right	GLO	left	close	1	intact	intact	17cc3183-9fa6-42da-8814-3bcbf562eceb_fps_avg_aud.mp4	0	0	0.447707	0	1	right	green	1	0	0
411	3	5	1	self	1.5	1.51261	yellow	0	left	left	GLO	right	close	1	intact	intact	b2b0c46b-c908-4752-b5cb-16abe9f2c872_fps_avg_aud.mp4	0	0	0.615077	0	1	left	yellow	1	0	0
411	3	6	1	self	1.5	1.51093	blue	1	down	down	GLO	right	far	1	intact	intact	039e9adf-0d8d-4d86-a59c-e7770b0ae616_fps_avg_aud.mp4	1	14	1.34942	0.0360776	3	up	blue	1	0	0
411	3	7	1	self	1.5	1.51237	yellow	1	down	down	GLO	right	far	1	intact	intact	049f3843-4d05-4200-8b41-7c0b71c68f4c_fps_avg_aud.mp4	0	0	0.997864	0	1	left	yellow	1	0	0
411	3	8	1	self	1.5	1.51067	green	0	right	right	GLO	left	close	1	intact	intact	9874ea15-f388-4d7d-ae5d-51013a69fee3_fps_avg_aud.mp4	1	0	1.24624	0	1	right	green	1	0	0
411	3	9	1	self	1.5	1.51201	green	0	right	right	GLO	left	close	1	intact	intact	march_21_2016_fps_avg_aud.mp4	1	121	0.681889	0.583934	1	right	green	1	0	0
411	3	10	1	self	1.5	1.51414	yellow	0	left	left	GLO	left	far	1	intact	intact	315e95e4-d9b0-4497-8992-fa67c8970229_fps_avg_aud.mp4	1	99	0.564522	0.466248	1	left	yellow	1	0	0
411	3	11	1	self	1.5	1.51382	yellow	0	left	left	GLO	left	close	1	intact	intact	7fe27e44-a1be-4335-89c2-e510e239df64_fps_avg_aud.mp4	1	70	0.809677	0.337877	2	left	yellow	1	0	0
411	3	12	1	self	1.5	1.50948	blue	1	left	left	GLO	left	far	1	intact	intact	8fa6e47a-355a-4a52-986e-ef49886619e0_fps_avg_aud.mp4	0	0	1.16556	0	1	up	blue	1	0	0
411	3	13	1	self	0.5	0.510489	green	1	left	left	GLO	right	close	1	intact	intact	16fe28b7-019b-49e7-9b4b-6b9fba85fe3d_fps_avg_aud.mp4	1	190	0.963525	0.725473	2	right	green	1	0	0
411	3	14	1	self	0.5	0.510397	blue	0	up	up	GLO	right	far	1	intact	intact	a3e1ae8d-fc6e-4c2a-a65c-9024b3c9f810_fps_avg_aud.mp4	1	17	0.631415	0.0656653	2	up	blue	1	0	0
411	3	15	1	self	0.5	0.514996	yellow	1	up	up	GLO	right	close	1	intact	intact	b03a76d5-df04-4f1c-a621-096b7428dc43_fps_avg_aud.mp4	1	351	1.43716	1.33921	1	left	yellow	1	0	0
411	3	16	1	self	0.5	0.511222	red	1	right	right	GLO	right	close	1	intact	intact	May_30_2016_fps_avg_aud.mp4	1	151	0.749165	0.655898	1	down	red	1	0	0
411	3	17	1	self	0.5	0.516117	green	0	right	right	GLO	right	far	1	intact	intact	980b240d-9e79-4cca-81da-f6d711752962_fps_avg_aud.mp4	1	0	0.615001	0	1	right	green	1	0	0
411	3	18	1	self	0.5	0.513738	red	1	left	left	GLO	right	close	1	intact	intact	a286ef4d-f7bf-4cc1-b7c2-912b53e8ea4a_fps_avg_aud.mp4	1	130	0.611753	0.513089	1	left	yellow	0	0	0
411	3	19	1	self	0.5	0.513908	blue	0	up	up	GLO	right	close	1	intact	intact	919b74e0-dd30-4685-b063-8556e1e10c55_fps_avg_aud.mp4	0	0	0.881867	0	1	up	blue	1	0	0
411	3	20	1	self	0.5	0.513768	red	1	left	left	GLO	left	close	1	intact	intact	e83d47c2-3289-4bb3-810c-afface120ccd_fps_avg_aud.mp4	0	0	1.0318	0	1	down	red	1	0	0
411	3	21	1	self	0.5	0.515268	green	0	right	right	GLO	right	far	1	intact	intact	f0c0b40e-f75d-4798-8deb-2b993faeea9f_fps_avg_aud.mp4	0	0	2.02257	0	1	right	green	1	0	0
411	3	22	1	self	0.5	0.515027	green	1	up	up	GLO	left	far	1	intact	intact	bd5cc988-d64f-435a-a1d7-3a872e473f76_fps_avg_aud.mp4	0	0	0.564545	0	1	right	green	1	0	0
411	3	23	1	self	0.5	0.510157	red	0	down	down	GLO	right	far	1	intact	intact	0fca764b-7147-4307-96dc-cc1807afd905_fps_avg_aud.mp4	0	0	1.39783	0	1	down	red	1	0	0
411	3	24	1	self	0.5	0.511848	yellow	0	left	left	GLO	right	far	1	intact	intact	17cb4c50-a413-43aa-8ef1-30df975b04f4_fps_avg_aud.mp4	1	0	1.01574	0	1	left	yellow	1	0	0
411	3	25	1	self	0.5	0.512636	yellow	1	right	right	GLO	right	far	1	intact	intact	Feb13_fps_avg_aud.mp4	0	0	0.729007	0	1	left	yellow	1	0	0
411	3	26	1	self	0.5	0.515962	blue	1	left	left	GLO	right	far	1	intact	intact	July4_fps_avg_aud.mp4	1	19	2.87834	0.0667285	1	up	blue	1	0	0
411	3	27	1	self	0.5	0.515635	green	1	up	up	GLO	left	far	1	intact	intact	92171dfa-1474-4f0d-8c37-ab1d226fa154(1)_fps_avg_aud.mp4	0	0	0.697803	0	1	right	green	1	0	0
411	3	28	1	self	0.5	NaN	yellow	0	left	left	GLO	none	close	1	intact	intact	Nov24_fps_avg_aud.mp4	0	0	NaN	NaN	NaN	none	none	NaN	0	0
411	3	29	1	self	0.5	NaN	red	0	down	down	GLO	none	far	1	intact	intact	July2_fps_avg_aud.mp4	0	0	NaN	NaN	NaN	none	none	NaN	0	0
411	3	30	1	self	0.5	NaN	yellow	0	left	left	GLO	none	far	1	intact	intact	fc42fffc-beb2-426f-85f8-fe9f11671486_fps_avg_aud.mp4	0	0	NaN	NaN	NaN	none	none	NaN	0	0
411	3	31	1	self	0.5	NaN	red	0	down	down	GLO	none	far	1	intact	intact	bfb0b536-e287-45e9-a605-3cba4dd07d9b_fps_avg_aud.mp4	0	0	NaN	NaN	NaN	none	none	NaN	0	0
411	3	32	1	self	0.5	NaN	blue	0	up	up	GLO	none	far	1	intact	intact	Mar4_fps_avg_aud.mp4	0	0	NaN	NaN	NaN	none	none	NaN	0	0
411	3	33	1	self	0.5	NaN	blue	1	left	left	GLO	none	far	1	intact	intact	Mar23_fps_avg_aud.mp4	0	0	NaN	NaN	NaN	none	none	NaN	0	0
411	3	34	1	self	0.5	NaN	blue	0	up	up	GLO	none	close	1	intact	intact	f1caa1d5-1230-4918-b000-58763883bff3_fps_avg_aud.mp4	0	0	NaN	NaN	NaN	none	none	NaN	0	0
411	3	35	1	self	0.5	NaN	blue	0	up	up	GLO	none	far	1	intact	intact	Apr2_fps_avg_aud.mp4	0	0	NaN	NaN	NaN	none	none	NaN	0	0
411	3	36	1	self	0.5	NaN	yellow	0	left	left	GLO	none	far	1	intact	intact	november_5_2015_fps_avg_aud.mp4	0	0	NaN	NaN	NaN	none	none	NaN	0	0
411	3	37	1	self	0.5	NaN	red	1	right	right	GLO	none	close	1	intact	intact	647890e0-5689-43cf-86ab-b37e61076130_fps_avg_aud.mp4	0	0	NaN	NaN	NaN	none	none	NaN	0	0
411	3	38	1	self	0.5	NaN	red	0	down	down	GLO	none	far	1	intact	intact	7cff1761-7eb4-4352-9fd6-437bff370f37_fps_avg_aud.mp4	0	0	NaN	NaN	NaN	none	none	NaN	0	0
411	3	39	1	self	0.5	NaN	yellow	1	up	up	GLO	none	close	1	intact	intact	cfead01b-2f72-4131-8069-3f2052f352e3_fps_avg_aud.mp4	0	0	NaN	NaN	NaN	none	none	NaN	0	0
411	3	40	1	self	0.5	NaN	red	0	down	down	GLO	none	far	1	intact	intact	14b4b9c3-9408-4ec8-bd84-8e92a4405645_fps_avg_aud.mp4	0	0	NaN	NaN	NaN	none	none	NaN	0	0
411	3	41	1	self	0.5	NaN	green	1	down	down	GLO	none	close	1	intact	intact	4d617426-ab8c-4125-9dcf-178529ca54a1_fps_avg_aud.mp4	0	0	NaN	NaN	NaN	none	none	NaN	0	0
411	3	42	1	self	0.5	NaN	green	0	right	right	GLO	none	close	1	intact	intact	Nov30_fps_avg_aud.mp4	0	0	NaN	NaN	NaN	none	none	NaN	0	0
411	3	43	1	self	0.5	NaN	yellow	0	left	left	GLO	none	close	1	intact	intact	Oct7_fps_avg_aud.mp4	0	0	NaN	NaN	NaN	none	none	NaN	0	0
411	3	44	1	self	0.5	NaN	green	0	right	right	GLO	none	far	1	intact	intact	Feb14_fps_avg_aud.mp4	0	0	NaN	NaN	NaN	none	none	NaN	0	0
411	3	45	1	self	0.5	NaN	red	0	down	down	GLO	none	close	1	intact	intact	Feb27_fps_avg_aud.mp4	0	0	NaN	NaN	NaN	none	none	NaN	0	0
411	3	46	1	self	0.5	NaN	green	1	left	left	GLO	none	far	1	intact	intact	86e20a10-46be-4f52-b05b-06877412cf60_fps_avg_aud.mp4	0	0	NaN	NaN	NaN	none	none	NaN	0	0
411	3	47	1	self	0.5	NaN	red	1	up	up	GLO	none	close	1	intact	intact	339eedaf-ff90-439f-b68a-797258b27c12_fps_avg_aud.mp4	0	0	NaN	NaN	NaN	none	none	NaN	0	0
411	3	48	1	self	0.5	NaN	blue	0	up	up	GLO	none	far	1	intact	intact	33d05c43-ee7c-4877-9419-344c4009c91e_fps_avg_aud.mp4	0	0	NaN	NaN	NaN	none	none	NaN	0	0
411	3	49	1	self	0.5	NaN	red	1	left	left	GLO	none	close	1	intact	intact	e5ba6207-d3a1-4e68-9c36-3fbb5658f232_fps_avg_aud.mp4	0	0	NaN	NaN	NaN	none	none	NaN	0	0
411	3	50	1	self	0.5	NaN	blue	1	left	left	GLO	none	far	1	intact	intact	October_14_2016_fps_avg_aud.mp4	0	0	NaN	NaN	NaN	none	none	NaN	0	0
411	3	51	1	self	0.5	NaN	green	1	left	left	GLO	none	close	1	intact	intact	April_20015_fps_avg_aud.mp4	0	0	NaN	NaN	NaN	none	none	NaN	0	0
411	3	52	1	self	0.5	NaN	green	0	right	right	GLO	none	far	1	intact	intact	959dfee9-c1d0-4643-9cbd-f9e818b706fa_fps_avg_aud.mp4	0	0	NaN	NaN	NaN	none	none	NaN	0	0
411	3	53	1	self	0.5	NaN	yellow	0	left	left	GLO	none	close	1	intact	intact	Mar19_fps_avg_aud.mp4	0	0	NaN	NaN	NaN	none	none	NaN	0	0
411	3	54	1	self	0.5	NaN	red	1	right	right	GLO	none	close	1	intact	intact	16ad27d6-0718-41b8-94e7-1c37789ce6cb_fps_avg_aud.mp4	0	0	NaN	NaN	NaN	none	none	NaN	0	0
411	3	55	1	self	0.5	NaN	green	0	right	right	GLO	none	close	1	intact	intact	705c0056-c7dd-4090-a27e-8956e33cb4b0_fps_avg_aud.mp4	0	0	NaN	NaN	NaN	none	none	NaN	0	0
411	3	56	1	self	0.5	NaN	red	1	right	right	GLO	none	close	1	intact	intact	May10_fps_avg_aud.mp4	0	0	NaN	NaN	NaN	none	none	NaN	0	0
411	3	57	1	self	0.5	NaN	yellow	0	left	left	GLO	none	far	1	intact	intact	December_2015_(1)_fps_avg_aud.mp4	0	0	NaN	NaN	NaN	none	none	NaN	0	0
411	3	58	1	self	0.5	NaN	green	0	right	right	GLO	none	far	1	intact	intact	690b1209-9514-4bd6-9698-3a990594f223_fps_avg_aud.mp4	0	0	NaN	NaN	NaN	none	none	NaN	0	0
411	3	59	1	self	0.5	NaN	yellow	1	up	up	GLO	none	close	1	intact	intact	0096623f-bd93-48df-96f9-85a0a749a586_fps_avg_aud.mp4	0	0	NaN	NaN	NaN	none	none	NaN	0	0
411	3	60	1	self	0.5	NaN	green	1	left	left	GLO	none	close	1	intact	intact	6189325b-e315-4417-8d81-a8cae54059df_fps_avg_aud.mp4	0	0	NaN	NaN	NaN	none	none	NaN	0	0
411	3	61	1	self	0.5	NaN	blue	0	up	up	GLO	none	far	1	intact	intact	c1a7aae7-8c3e-4488-9566-07a14f982e35_fps_avg_aud.mp4	0	0	NaN	NaN	NaN	none	none	NaN	0	0
411	3	62	1	self	0.5	NaN	green	1	left	left	GLO	none	far	1	intact	intact	August1_fps_avg_aud.mp4	0	0	NaN	NaN	NaN	none	none	NaN	0	0
411	3	63	1	self	0.5	NaN	yellow	1	down	down	GLO	none	far	1	intact	intact	960000ea-ab44-4258-8824-51f8fdf7a806_fps_avg_aud.mp4	0	0	NaN	NaN	NaN	none	none	NaN	0	0
411	3	64	1	self	0.5	NaN	green	1	up	up	GLO	none	close	1	intact	intact	Dec30_fps_avg_aud.mp4	0	0	NaN	NaN	NaN	none	none	NaN	0	0
411	3	65	1	self	0.5	NaN	yellow	1	up	up	GLO	none	close	1	intact	intact	April_2015_(1)_fps_avg_aud.mp4	0	0	NaN	NaN	NaN	none	none	NaN	0	0
411	3	66	1	self	0.5	NaN	yellow	1	up	up	GLO	none	far	1	intact	intact	January_10_2016_fps_avg_aud.mp4	0	0	NaN	NaN	NaN	none	none	NaN	0	0
411	3	67	1	self	0.5	NaN	blue	1	right	right	GLO	none	far	1	intact	intact	beb38bd6-976e-468f-9f23-b6b41f12ce11_fps_avg_aud.mp4	0	0	NaN	NaN	NaN	none	none	NaN	0	0
411	3	68	1	self	0.5	NaN	green	1	up	up	GLO	none	far	1	intact	intact	January_2016_(4)_fps_avg_aud.mp4	0	0	NaN	NaN	NaN	none	none	NaN	0	0
411	3	69	1	self	0.5	NaN	blue	0	up	up	GLO	none	far	1	intact	intact	e3992607-d25b-430c-bd18-12cb4a6d1b28_fps_avg_aud.mp4	0	0	NaN	NaN	NaN	none	none	NaN	0	0
411	3	70	1	self	0.5	NaN	green	0	right	right	GLO	none	close	1	intact	intact	05c4b895-8d51-48d4-93fd-4e37519019a0_fps_avg_aud.mp4	0	0	NaN	NaN	NaN	none	none	NaN	0	0
411	3	71	1	self	0.5	NaN	blue	1	right	right	GLO	none	far	1	intact	intact	e4815a42-3a54-463e-aeba-1230af20106d_fps_avg_aud.mp4	0	0	NaN	NaN	NaN	none	none	NaN	0	0
411	3	72	1	self	0.5	NaN	yellow	1	right	right	GLO	none	close	1	intact	intact	e67cff3b-48fd-4045-95c8-a92189606742_fps_avg_aud.mp4	0	0	NaN	NaN	NaN	none	none	NaN	0	0
411	3	73	1	self	0.5	NaN	red	0	down	down	GLO	none	far	1	intact	intact	8b186ca3-65a3-4740-8611-404063ae0ec7_fps_avg_aud.mp4	0	0	NaN	NaN	NaN	none	none	NaN	0	0
411	3	74	1	self	0.5	NaN	yellow	0	left	left	GLO	none	far	1	intact	intact	b55ab065-b20b-4b90-b1fd-ca55d667b668_fps_avg_aud.mp4	0	0	NaN	NaN	NaN	none	none	NaN	0	0
411	3	75	1	self	0.5	NaN	yellow	0	left	left	GLO	none	close	1	intact	intact	december_2015_(4)_fps_avg_aud.mp4	0	0	NaN	NaN	NaN	none	none	NaN	0	0
411	3	76	1	self	0.5	NaN	blue	1	right	right	GLO	none	far	1	intact	intact	058bdf98-bb64-4851-92f5-ffad71866ee8_fps_avg_aud.mp4	0	0	NaN	NaN	NaN	none	none	NaN	0	0
411	3	77	1	self	0.5	NaN	yellow	1	down	down	GLO	none	far	1	intact	intact	October_2015_fps_avg_aud.mp4	0	0	NaN	NaN	NaN	none	none	NaN	0	0
411	3	78	1	self	0.5	NaN	green	1	up	up	GLO	none	far	1	intact	intact	ede4a096-21dc-4ed4-9b28-6df0a7f6fe6b_fps_avg_aud.mp4	0	0	NaN	NaN	NaN	none	none	NaN	0	0
411	3	79	1	self	0.5	NaN	blue	1	left	left	GLO	none	close	1	intact	intact	5901a51f-f684-46c5-8a4f-abc4c05199d0_fps_avg_aud.mp4	0	0	NaN	NaN	NaN	none	none	NaN	0	0
411	3	80	1	self	0.5	NaN	yellow	1	up	up	GLO	none	close	1	intact	intact	e57a35d6-39b7-4b9c-a4a1-844e0bebd3c1_fps_avg_aud.mp4	0	0	NaN	NaN	NaN	none	none	NaN	0	0
411	3	81	1	self	0.5	NaN	yellow	1	down	down	GLO	none	close	1	intact	intact	01790276-7d56-4063-9522-da49270e2a6b_fps_avg_aud.mp4	0	0	NaN	NaN	NaN	none	none	NaN	0	0
411	3	82	1	self	0.5	NaN	blue	1	down	down	GLO	none	far	1	intact	intact	d0082a79-d6fc-4855-80df-f443f4a14e37_fps_avg_aud.mp4	0	0	NaN	NaN	NaN	none	none	NaN	0	0
411	3	83	1	self	0.5	NaN	green	0	right	right	GLO	none	close	1	intact	intact	June7_fps_avg_aud.mp4	0	0	NaN	NaN	NaN	none	none	NaN	0	0
411	3	84	1	self	0.5	NaN	green	0	right	right	GLO	none	far	1	intact	intact	June_2016_(1)_fps_avg_aud.mp4	0	0	NaN	NaN	NaN	none	none	NaN	0	0
411	3	85	1	self	0.5	NaN	blue	1	right	right	GLO	none	far	1	intact	intact	May7_fps_avg_aud.mp4	0	0	NaN	NaN	NaN	none	none	NaN	0	0
411	3	86	1	self	0.5	NaN	red	0	down	down	GLO	none	close	1	intact	intact	Dec12_fps_avg_aud.mp4	0	0	NaN	NaN	NaN	none	none	NaN	0	0
411	3	87	1	self	0.5	NaN	blue	0	up	up	GLO	none	close	1	intact	intact	may_2015_fps_avg_aud.mp4	0	0	NaN	NaN	NaN	none	none	NaN	0	0
411	3	88	1	self	0.5	NaN	red	0	down	down	GLO	none	close	1	intact	intact	e3ba147b-ae8e-4b27-9412-577f6cfd64f4_fps_avg_aud.mp4	0	0	NaN	NaN	NaN	none	none	NaN	0	0
411	3	89	1	self	0.5	NaN	blue	0	up	up	GLO	none	close	1	intact	intact	eccee75e-3f7b-45d7-b4a7-10ac4fce267e_fps_avg_aud.mp4	0	0	NaN	NaN	NaN	none	none	NaN	0	0
411	3	90	1	self	0.5	NaN	blue	1	left	left	GLO	none	far	1	intact	intact	533b0238-357b-409c-8d86-25285970eb98_fps_avg_aud.mp4	0	0	NaN	NaN	NaN	none	none	NaN	0	0
411	3	91	1	self	0.5	NaN	blue	1	left	left	GLO	none	far	1	intact	intact	18d4ec1c-7f36-4828-8594-27b6bfd3c309_fps_avg_aud.mp4	0	0	NaN	NaN	NaN	none	none	NaN	0	0
411	3	92	1	self	0.5	NaN	blue	1	right	right	GLO	none	close	1	intact	intact	91a36f37-93be-4754-9ddb-f173f29574e1_fps_avg_aud.mp4	0	0	NaN	NaN	NaN	none	none	NaN	0	0
411	3	93	1	self	0.5	NaN	blue	0	up	up	GLO	none	close	1	intact	intact	2d9948f5-94d5-495f-a74e-80174a3c508a_fps_avg_aud.mp4	0	0	NaN	NaN	NaN	none	none	NaN	0	0
411	4	1	0	self	1.5	1.51767	blue	0	up	up	GLO	right	far	1	intact	intact	Jul4_fps_avg_aud.mp4	0	0	1.04795	0	1	up	blue	1	0.001	low
411	4	2	0	self	1.5	1.51017	blue	1	right	right	GLO	right	far	1	intact	intact	ea6675d4-3684-48c3-9bd0-c32d38c48c9e_fps_avg_aud.mp4	0	0	1.01232	0	1	up	blue	1	0.002	low
411	4	3	0	self	1.5	1.51329	blue	1	left	left	GLO	right	far	1	intact	intact	bbadcc83-10bb-4a2d-a28a-1d6b44f33770_fps_avg_aud.mp4	0	0	0.515455	0	1	up	blue	1	0.003	low
411	4	4	0	self	1.5	1.51286	red	1	up	up	GLO	right	far	1	intact	intact	jun13_fps_avg_aud.mp4	0	0	0.757454	0	1	down	red	1	0.004	low
411	4	5	0	self	1.5	1.5143	red	1	up	up	GLO	left	far	1	intact	intact	ac670a32-9758-4aa8-b876-775cfe4f2e47_fps_avg_aud.mp4	0	0	0.565771	0	1	down	red	1	0.005	low
411	4	6	0	self	1.5	1.51131	yellow	0	left	left	GLO	right	far	1	intact	intact	ac2b9dfa-7a4b-40ef-9499-c883a9127ad7_fps_avg_aud.mp4	0	0	0.693595	0	1	left	yellow	1	0.006	low
411	4	7	0	self	1.5	1.51436	blue	0	up	up	GLO	right	far	1	intact	intact	eec24f3a-496f-4cb7-8f48-5bf5530f3e96_fps_avg_aud.mp4	0	0	0.665146	0	1	up	blue	1	0.007	low
411	4	8	0	self	1.5	1.51254	green	0	right	right	GLO	right	far	1	intact	intact	c4382136-d60d-4fd0-872b-23cb9269b725_fps_avg_aud.mp4	0	0	0.682102	0	1	left	yellow	0	0.006	low
411	4	9	0	self	1.5	1.51251	blue	0	up	up	GLO	right	close	1	intact	intact	5b4edd74-dc10-4920-b508-c0b2f21238c3_fps_avg_aud.mp4	0	0	0.72523	0	1	up	blue	1	0.007	low
411	4	10	0	self	1.5	1.51246	red	0	down	down	GLO	left	close	1	intact	intact	April_2015_fps_avg_aud.mp4	0	0	0.732232	0	1	down	red	1	0.008	low
411	4	11	0	self	1.5	1.51077	yellow	0	left	left	GLO	right	far	1	intact	intact	July_2015_fps_avg_aud.mp4	0	0	0.881898	0	1	left	yellow	1	0.009	low
411	4	12	0	self	1.5	1.51032	red	1	up	up	GLO	right	far	1	intact	intact	6247a4ca-9a6e-47c1-91f4-5a9925a1c125_fps_avg_aud.mp4	0	0	0.748699	0	1	down	red	1	0.01	low
411	4	13	0	self	1.5	1.51171	red	1	left	left	GLO	right	far	1	intact	intact	919b74e0-dd30-4685-b063-8556e1e10c55_fps_avg_aud.mp4	0	0	0.781212	0	1	down	red	1	0.011	low
411	4	14	0	self	1.5	1.5123	yellow	1	up	up	GLO	right	close	1	intact	intact	c5792f9d-c420-493b-acf2-46528babd08c_fps_avg_aud.mp4	0	0	0.715558	0	1	left	yellow	1	0.012	low
411	4	15	0	self	1.5	1.51215	green	0	right	right	GLO	left	far	1	intact	intact	99e5912a-fa6d-43dc-a1df-f887e6ef8a00_fps_avg_aud.mp4	0	0	0.425453	0	1	right	green	1	0.013	low
411	4	16	0	self	1.5	1.50915	red	1	right	right	GLO	right	close	1	intact	intact	bfb38b58-a56a-427a-a233-3b6663beed7c_fps_avg_aud.mp4	0	0	0.641614	0	1	down	red	1	0.014	low
411	4	17	0	self	1.5	1.51037	blue	1	right	right	GLO	right	close	1	intact	intact	05c4b895-8d51-48d4-93fd-4e37519019a0_fps_avg_aud.mp4	0	0	0.765495	0	1	up	blue	1	0.015	low
411	4	18	0	self	1.5	1.51217	blue	0	up	up	GLO	left	close	1	intact	intact	cef9c179-f64d-4543-875f-6808da2329b6_fps_avg_aud.mp4	0	0	0.680834	0	1	up	blue	1	0.016	low
411	4	19	0	self	1.5	1.51113	green	1	left	left	GLO	right	far	1	intact	intact	637444dd-82ca-432a-beab-7eb721de8b71_fps_avg_aud.mp4	0	0	1.38104	0	1	right	green	1	0.017	low
411	4	20	0	self	1.5	1.51365	yellow	1	up	up	GLO	right	close	1	intact	intact	98afb848-1bd2-46a6-89c7-32d60d6d1855_fps_avg_aud.mp4	0	0	0.630686	0	1	left	yellow	1	0.018	low
411	4	21	0	self	1.5	1.5137	green	1	up	up	GLO	right	far	1	intact	intact	19665232-505f-47ba-bfb2-2e9668369ce4_fps_avg_aud.mp4	1	0	0.652925	0	1	right	green	1	0.019	low
411	4	22	0	self	1.5	1.51575	green	1	down	down	GLO	left	close	1	intact	intact	342c3db7-0e7e-4cf9-b04c-0d7bba48d8bb_fps_avg_aud.mp4	0	0	0.81431	0	1	right	green	1	0.02	low
411	4	23	0	self	1.5	1.5121	blue	0	up	up	GLO	right	close	1	intact	intact	8b38af47-0b70-4682-ac0e-c7a415e91156_fps_avg_aud.mp4	0	0	0.663834	0	1	up	blue	1	0.021	low
411	4	24	0	self	1.5	1.51071	blue	0	up	up	GLO	right	close	1	intact	intact	a36f5f1c-60eb-41c0-8ed1-09a4e01342bc_fps_avg_aud.mp4	0	0	0.398502	0	1	up	blue	1	0.022	low
411	4	25	0	self	1.5	1.5121	blue	0	up	up	GLO	left	far	1	intact	intact	d0082a79-d6fc-4855-80df-f443f4a14e37_fps_avg_aud.mp4	0	0	0.481906	0	1	up	blue	1	0.023	low
411	4	26	0	self	1.5	1.51439	blue	0	up	up	GLO	right	far	1	intact	intact	705c0056-c7dd-4090-a27e-8956e33cb4b0_fps_avg_aud.mp4	0	0	0.459968	0	1	up	blue	1	0.024	low
411	4	27	0	self	1.5	1.51395	yellow	1	down	down	GLO	right	close	1	intact	intact	Feb25_fps_avg_aud.mp4	0	0	0.781566	0	1	left	yellow	1	0.025	low
411	4	28	0	self	1.5	NaN	blue	1	left	left	GLO	none	close	1	intact	intact	533b0238-357b-409c-8d86-25285970eb98_fps_avg_aud.mp4	0	0	NaN	NaN	NaN	none	none	NaN	0.025	low
411	4	29	0	self	1.5	NaN	green	1	up	up	GLO	none	far	1	intact	intact	Feb7_fps_avg_aud.mp4	0	0	NaN	NaN	NaN	none	none	NaN	0.025	low
411	4	30	0	self	1.5	NaN	blue	0	up	up	GLO	none	close	1	intact	intact	June_2016_(1)_fps_avg_aud.mp4	0	0	NaN	NaN	NaN	none	none	NaN	0.025	low
411	4	31	0	self	1.5	NaN	yellow	1	right	right	GLO	none	close	1	intact	intact	21ca1f40-8184-4506-9096-1849a40e04e2_fps_avg_aud.mp4	0	0	NaN	NaN	NaN	none	none	NaN	0.025	low
411	4	32	0	self	1.5	NaN	green	0	right	right	GLO	none	close	1	intact	intact	Aug30_fps_avg_aud.mp4	0	0	NaN	NaN	NaN	none	none	NaN	0.025	low
411	4	33	0	self	1.5	NaN	blue	1	right	right	GLO	none	close	1	intact	intact	0fca764b-7147-4307-96dc-cc1807afd905_fps_avg_aud.mp4	0	0	NaN	NaN	NaN	none	none	NaN	0.025	low
411	4	34	0	self	1.5	NaN	blue	1	right	right	GLO	none	close	1	intact	intact	Nov28_fps_avg_aud.mp4	0	0	NaN	NaN	NaN	none	none	NaN	0.025	low
411	4	35	0	self	1.5	NaN	red	1	up	up	GLO	none	far	1	intact	intact	Sep7_fps_avg_aud.mp4	0	0	NaN	NaN	NaN	none	none	NaN	0.025	low
411	4	36	0	self	1.5	NaN	blue	0	up	up	GLO	none	far	1	intact	intact	5f534c39-dfe8-4a8d-a678-c406bcf9154d_fps_avg_aud.mp4	0	0	NaN	NaN	NaN	none	none	NaN	0.025	low
411	4	37	0	self	1.5	NaN	yellow	0	left	left	GLO	none	close	1	intact	intact	14b4b9c3-9408-4ec8-bd84-8e92a4405645_fps_avg_aud.mp4	0	0	NaN	NaN	NaN	none	none	NaN	0.025	low
411	5	1	0	self	1.5	1.51662	red	1	left	left	GLO	right	close	1	intact	intact	October_25_2016_fps_avg_aud.mp4	0	0	0.964521	0	1	down	red	1	0.035	high
411	5	2	0	self	1.5	1.51425	blue	1	right	right	GLO	right	close	1	intact	intact	ac2b9dfa-7a4b-40ef-9499-c883a9127ad7_fps_avg_aud.mp4	0	0	0.94338	0	1	up	blue	1	0.045	high
411	5	3	0	self	1.5	1.50952	green	1	down	down	GLO	right	far	1	intact	intact	e3ba147b-ae8e-4b27-9412-577f6cfd64f4_fps_avg_aud.mp4	0	0	0.881579	0	1	right	green	1	0.055	high
411	5	4	0	self	1.5	1.5108	red	1	up	up	GLO	left	close	1	intact	intact	bfb38b58-a56a-427a-a233-3b6663beed7c_fps_avg_aud.mp4	0	0	0.764494	0	1	down	red	1	0.065	high
411	5	5	0	self	1.5	1.51318	green	0	right	right	GLO	left	far	1	intact	intact	b1ade3a7-f9fd-4229-8a80-df334c184531_fps_avg_aud.mp4	0	0	0.631607	0	1	right	green	1	0.075	high
411	5	6	0	self	1.5	1.51211	red	1	left	left	GLO	left	close	1	intact	intact	f5740bdb-f6a7-4842-9fa8-065f8eed57f4_fps_avg_aud.mp4	0	0	0.806537	0	1	down	red	1	0.085	high
411	5	7	0	self	1.5	1.51055	red	0	down	down	GLO	right	far	1	intact	intact	f88c90ff-41f4-4220-a305-426fa931932f_fps_avg_aud.mp4	0	0	0.563699	0	1	down	red	1	0.095	high
411	5	8	0	self	1.5	1.51064	blue	1	left	left	GLO	left	close	1	intact	intact	179d3911-04f4-4680-91c3-2515ed1f3cc4_fps_avg_aud.mp4	0	0	1.0478	0	1	up	blue	1	0.105	high
411	5	9	0	self	1.5	1.51453	blue	1	left	left	GLO	left	far	1	intact	intact	5b4edd74-dc10-4920-b508-c0b2f21238c3_fps_avg_aud.mp4	0	0	0.398106	0	1	up	blue	1	0.115	high
411	5	10	0	self	1.5	1.51165	red	0	down	down	GLO	right	far	1	intact	intact	bbadcc83-10bb-4a2d-a28a-1d6b44f33770_fps_avg_aud.mp4	0	0	0.565005	0	1	down	red	1	0.125	high
411	5	11	0	self	1.5	1.51066	green	1	up	up	GLO	left	close	1	intact	intact	491c6b26-e39a-4650-ae90-8d66fc596b16_fps_avg_aud.mp4	0	0	0.631024	0	1	right	green	1	0.135	high
411	5	12	0	self	1.5	1.51193	blue	1	down	down	GLO	right	far	1	intact	intact	August_2016_(1)_fps_avg_aud.mp4	0	0	1.31457	0	1	up	blue	1	0.145	high
411	5	13	0	self	1.5	1.51307	red	1	up	up	GLO	left	far	1	intact	intact	c79830e0-a78a-415b-b7be-95bf79fe1a3a_fps_avg_aud.mp4	0	0	0.986594	0	1	down	red	1	0.155	high
411	5	14	0	self	1.5	1.51376	red	1	right	right	GLO	left	close	1	intact	intact	71f3eec1-1d03-4a49-954e-7a809baeb44b_fps_avg_aud.mp4	0	0	0.644004	0	1	down	red	1	0.165	high
411	5	15	0	self	1.5	1.51186	blue	0	up	up	GLO	right	far	1	intact	intact	September_2016_(2)_fps_avg_aud.mp4	0	0	0.865594	0	1	up	blue	1	0.175	high
411	5	16	0	self	1.5	1.51459	red	1	right	right	GLO	right	far	1	intact	intact	f1caa1d5-1230-4918-b000-58763883bff3_fps_avg_aud.mp4	0	0	0.731327	0	1	down	red	1	0.185	high
411	5	17	0	self	1.5	1.51089	red	1	left	left	GLO	left	far	1	intact	intact	e8afc4ba-88ff-4bff-928a-27c2c4fe446f_fps_avg_aud.mp4	0	0	0.514567	0	1	down	red	1	0.195	high
411	5	18	0	self	1.5	1.51173	green	1	left	left	GLO	left	close	1	intact	intact	e2244423-2494-4cef-96da-ceaa115b3e8d_fps_avg_aud.mp4	0	0	0.631331	0	1	right	green	1	0.205	high
411	5	19	0	self	1.5	1.51323	red	0	down	down	GLO	right	close	1	intact	intact	b23c9ea6-adb6-492c-965f-16af3f7801e9_fps_avg_aud.mp4	0	0	0.564366	0	1	down	red	1	0.215	high
411	5	20	0	self	1.5	1.51193	blue	1	right	right	GLO	left	close	1	intact	intact	d1495dc6-3264-40ae-807f-007f3ab4bdee_fps_avg_aud.mp4	0	0	0.832483	0	1	right	green	0	0.205	high
411	5	21	0	self	1.5	1.51167	green	0	right	right	GLO	right	close	1	intact	intact	f08bb9b7-0409-482c-9084-de15481ab2b3_fps_avg_aud.mp4	0	0	0.631212	0	1	right	green	1	0.215	high
411	5	22	0	self	1.5	1.51015	yellow	1	up	up	GLO	left	far	1	intact	intact	5901a51f-f684-46c5-8a4f-abc4c05199d0_fps_avg_aud.mp4	0	0	0.698939	0	1	left	yellow	1	0.225	high
411	5	23	0	self	1.5	1.51372	yellow	0	left	left	GLO	right	far	1	intact	intact	e8c6c3f9-933c-4d98-9013-684e2acc2e1e_fps_avg_aud.mp4	0	0	0.515195	0	1	left	yellow	1	0.235	high
411	5	24	0	self	1.5	1.51264	red	0	down	down	GLO	left	close	1	intact	intact	July_2015_fps_avg_aud.mp4	0	0	0.898184	0	1	down	red	1	0.245	high
411	5	25	0	self	1.5	1.51309	green	1	down	down	GLO	right	far	1	intact	intact	Feb14_fps_avg_aud.mp4	0	0	0.564117	0	1	right	green	1	0.255	high
411	5	26	0	self	1.5	1.51302	yellow	0	left	left	GLO	left	far	1	intact	intact	Sep24_fps_avg_aud.mp4	0	0	0.63075	0	1	left	yellow	1	0.265	high
411	5	27	0	self	1.5	NaN	green	1	down	down	GLO	none	close	1	intact	intact	c1a7aae7-8c3e-4488-9566-07a14f982e35_fps_avg_aud.mp4	0	0	NaN	NaN	NaN	none	none	NaN	0.265	high
411	5	28	0	self	1.5	NaN	blue	1	down	down	GLO	none	close	1	intact	intact	6d873e1d-8ad7-4688-a181-c3322982e4a6_fps_avg_aud.mp4	0	0	NaN	NaN	NaN	none	none	NaN	0.265	high
411	5	29	0	self	1.5	NaN	red	1	up	up	GLO	none	close	1	intact	intact	ea69ea96-da66-4080-96c0-6671ca9fd051_fps_avg_aud.mp4	0	0	NaN	NaN	NaN	none	none	NaN	0.265	high
411	5	30	0	self	1.5	NaN	yellow	1	down	down	GLO	none	far	1	intact	intact	24d66d05-cb47-4803-b009-da6ae79affa7_fps_avg_aud.mp4	0	0	NaN	NaN	NaN	none	none	NaN	0.265	high
411	5	31	0	self	1.5	NaN	blue	1	left	left	GLO	none	far	1	intact	intact	November_2016_fps_avg_aud.mp4	0	0	NaN	NaN	NaN	none	none	NaN	0.265	high
411	5	32	0	self	1.5	NaN	red	1	up	up	GLO	none	far	1	intact	intact	1559c6cc-6a1d-4309-9bdf-810832c277d8_fps_avg_aud.mp4	0	0	NaN	NaN	NaN	none	none	NaN	0.265	high
411	5	33	0	self	1.5	NaN	blue	1	right	right	GLO	none	far	1	intact	intact	fd4a95d6-f171-4c0b-8de2-e9ca909c9eff_fps_avg_aud.mp4	0	0	NaN	NaN	NaN	none	none	NaN	0.265	high
411	5	34	0	self	1.5	NaN	green	1	down	down	GLO	none	close	1	intact	intact	Dec12_fps_avg_aud.mp4	0	0	NaN	NaN	NaN	none	none	NaN	0.265	high
411	5	35	0	self	1.5	NaN	green	1	up	up	GLO	none	close	1	intact	intact	8a8f2893-dc1c-441b-8b88-03672ad98bf9_fps_avg_aud.mp4	0	0	NaN	NaN	NaN	none	none	NaN	0.265	high
411	5	36	0	self	1.5	NaN	red	1	right	right	GLO	none	far	1	intact	intact	91a36f37-93be-4754-9ddb-f173f29574e1_fps_avg_aud.mp4	0	0	NaN	NaN	NaN	none	none	NaN	0.265	high
411	5	37	0	self	1.5	NaN	blue	1	down	down	GLO	none	far	1	intact	intact	6247a4ca-9a6e-47c1-91f4-5a9925a1c125_fps_avg_aud.mp4	0	0	NaN	NaN	NaN	none	none	NaN	0.265	high
411	6	1	0	auto	1.5	1.51212	red	1	right	right	GLO	right	close	0	intact	none	none	0	0	0.664325	0	1	down	red	1	0.275	high
411	6	2	0	auto	1.5	1.51279	blue	1	right	right	GLO	left	far	1	intact	intact	5022b285-2c2f-4e4f-824d-5e45be82c1a3_fps_avg_aud.mp4	1	0	1.04438	0	1	up	blue	1	0.285	high
411	6	3	0	auto	1.5	1.51468	yellow	1	right	right	GLO	left	close	1	intact	intact	Sep19_fps_avg_aud.mp4	1	0	0.746242	0	1	left	yellow	1	0.295	high
411	6	4	0	auto	1.5	1.51191	green	0	right	right	GLO	right	close	1	intact	intact	Nov11_fps_avg_aud.mp4	1	0	0.654023	0	1	right	green	1	0.305	high
411	6	5	0	auto	1.5	1.50877	blue	0	up	up	GLO	right	far	1	intact	intact	b2f11719-a2c9-405c-93a2-abd13a835201_fps_avg_aud.mp4	1	0	0.701992	0	1	up	blue	1	0.315	high
411	6	6	0	auto	1.5	1.51308	blue	1	down	down	GLO	right	close	1	intact	intact	bb75a9e7-75e9-4641-8e0c-ecaabf7a7e69(1)_fps_avg_aud.mp4	1	0	0.675679	0	1	up	blue	1	0.325	high
411	6	7	0	auto	1.5	1.51338	red	1	left	left	GLO	right	close	1	intact	intact	Dec1_fps_avg_aud.mp4	1	0	0.630421	0	1	down	red	1	0.335	high
411	6	8	0	auto	1.5	1.51207	green	0	right	right	GLO	left	close	1	intact	intact	b70b2fc0-8728-4c47-a0fd-a887a904f1ee_fps_avg_aud.mp4	1	6	1.2617	0.0134924	1	right	green	1	0.345	high
411	6	9	0	auto	1.5	1.51185	green	0	right	right	GLO	right	far	1	intact	intact	959dfee9-c1d0-4643-9cbd-f9e818b706fa_fps_avg_aud.mp4	1	0	0.52319	0	1	right	green	1	0.355	high
411	6	10	0	auto	1.5	1.51001	blue	0	up	up	GLO	right	close	1	intact	intact	jan31_2016_fps_avg_aud.mp4	1	16	0.639568	0.0690239	1	up	blue	1	0.365	high
411	6	11	0	auto	1.5	1.51149	red	1	left	left	GLO	left	close	1	intact	intact	24481237-3ead-4e6a-9a61-be95f34bf5f2_fps_avg_aud.mp4	1	0	0.844777	0	1	down	red	1	0.375	high
411	6	12	0	auto	1.5	1.51199	yellow	1	up	up	GLO	left	far	1	intact	intact	149f1481-9792-4892-beba-4137601f26a6_fps_avg_aud.mp4	1	0	0.748314	0	1	left	yellow	1	0.385	high
411	6	13	0	auto	1.5	1.51247	yellow	1	right	right	GLO	right	close	1	intact	intact	705c0056-c7dd-4090-a27e-8956e33cb4b0_fps_avg_aud.mp4	1	0	0.500557	0	1	left	yellow	1	0.395	high
411	6	14	0	auto	1.5	1.51195	yellow	0	left	left	GLO	right	close	1	intact	intact	ae455cc0-190e-4a3d-907c-79f241176900_fps_avg_aud.mp4	1	16	0.495402	0.066694	1	left	yellow	1	0.405	high
411	6	15	0	auto	1.5	1.51283	red	1	right	right	GLO	left	close	1	intact	intact	e2244423-2494-4cef-96da-ceaa115b3e8d_fps_avg_aud.mp4	1	0	1.12069	0	1	down	red	1	0.415	high
411	6	16	0	auto	1.5	1.51233	blue	1	left	left	GLO	right	far	1	intact	intact	Apr16_fps_avg_aud.mp4	1	0	0.93553	0	1	up	blue	1	0.425	high
411	6	17	0	auto	1.5	1.51392	red	1	up	up	GLO	right	far	1	intact	intact	54741aa9-fdb7-4546-b60b-078b0914ddd1_fps_avg_aud.mp4	1	0	0.831194	0	1	down	red	1	0.435	high
411	6	18	0	auto	1.5	1.51334	green	0	right	right	GLO	right	close	0	intact	none	none	0	0	0.664796	0	1	right	green	1	0.445	high
411	6	19	0	auto	1.5	1.50956	blue	0	up	up	GLO	right	close	1	intact	intact	023396f6-bdb5-478d-a725-e32d4f6b7be9_fps_avg_aud.mp4	1	0	0.695199	0	1	up	blue	1	0.455	high
411	6	20	0	auto	1.5	1.51464	red	0	down	down	GLO	right	close	1	intact	intact	32a37ce7-a199-40eb-b5c5-b974866ffc28_fps_avg_aud.mp4	1	8	0.819383	0.0206059	1	down	red	1	0.465	high
411	6	21	0	auto	1.5	1.50992	red	1	left	left	GLO	left	far	1	intact	intact	71f3eec1-1d03-4a49-954e-7a809baeb44b_fps_avg_aud.mp4	1	0	0.914527	0	1	down	red	1	0.475	high
411	6	22	0	auto	1.5	1.51395	green	1	left	left	GLO	right	close	1	intact	intact	a525e336-0ec0-4048-92cf-487e44952f5c_fps_avg_aud.mp4	1	35	0.667356	0.130913	1	right	green	1	0.485	high
411	6	23	0	auto	1.5	1.5098	blue	1	left	left	GLO	right	far	1	intact	intact	e066eed1-ff30-4572-8429-cde771b0bc43_fps_avg_aud.mp4	1	0	0.757716	0	1	up	blue	1	0.495	high
411	6	24	0	auto	1.5	1.51332	green	1	down	down	GLO	left	close	1	intact	intact	October_20_2016_fps_avg_aud.mp4	1	0	0.827283	0	1	right	green	1	0.505	high
411	6	25	0	auto	1.5	1.5119	red	1	up	up	GLO	right	close	1	intact	intact	Aug10_fps_avg_aud.mp4	1	20	0.85408	0.0558331	1	down	red	1	0.515	high
411	6	26	0	auto	1.5	1.5107	yellow	0	left	left	GLO	left	far	0	intact	none	none	0	0	0.656177	0	1	left	yellow	1	0.525	high
411	6	27	0	auto	1.5	NaN	green	1	up	up	GLO	none	close	0	intact	none	none	0	0	NaN	NaN	NaN	none	none	NaN	0.525	high
411	6	28	0	auto	1.5	NaN	yellow	0	left	left	GLO	none	far	0	intact	none	none	0	0	NaN	NaN	NaN	none	none	NaN	0.525	high
411	6	29	0	auto	1.5	NaN	green	1	up	up	GLO	none	far	1	intact	intact	0602c0a8-082a-4bca-9f5b-70795017698f_fps_avg_aud.mp4	0	0	NaN	NaN	NaN	none	none	NaN	0.525	high
411	6	30	0	auto	1.5	NaN	green	1	left	left	GLO	none	far	1	intact	intact	August1_fps_avg_aud.mp4	0	0	NaN	NaN	NaN	none	none	NaN	0.525	high
411	6	31	0	auto	1.5	NaN	blue	1	left	left	GLO	none	far	1	intact	intact	241df9f5-fbf5-49b9-a03c-764ba4b6ace9_fps_avg_aud.mp4	0	0	NaN	NaN	NaN	none	none	NaN	0.525	high
411	6	32	0	auto	1.5	NaN	blue	0	up	up	GLO	none	far	1	intact	intact	34cddff1-7a1a-4e71-be66-8a745a1d42f4_fps_avg_aud.mp4	0	0	NaN	NaN	NaN	none	none	NaN	0.525	high
411	6	33	0	auto	1.5	NaN	yellow	1	right	right	GLO	none	close	0	intact	none	none	0	0	NaN	NaN	NaN	none	none	NaN	0.525	high
411	6	34	0	auto	1.5	NaN	yellow	1	right	right	GLO	none	far	1	intact	intact	e00791ee-f5a4-4315-8214-e183c3e1d2cf_fps_avg_aud.mp4	0	0	NaN	NaN	NaN	none	none	NaN	0.525	high
411	6	35	0	auto	1.5	NaN	red	1	left	left	GLO	none	far	0	intact	none	none	0	0	NaN	NaN	NaN	none	none	NaN	0.525	high
411	6	36	0	auto	1.5	NaN	green	1	left	left	GLO	none	far	0	intact	none	none	0	0	NaN	NaN	NaN	none	none	NaN	0.525	high
411	6	37	0	auto	1.5	NaN	green	1	up	up	GLO	none	far	1	intact	intact	aef9b535-d7ad-47d4-adb8-d3ac2abf6652_fps_avg_aud.mp4	0	0	NaN	NaN	NaN	none	none	NaN	0.525	high
411	7	1	0	auto	1.5	1.51564	red	1	left	left	GLO	right	far	1	intact	intact	838aaec1-d86d-4006-a165-4cb3e5f6444b_fps_avg_aud.mp4	1	915	4.81176	3.72204	1	down	red	1	0.526	low
411	7	2	0	auto	1.5	1.51406	yellow	0	left	left	GLO	left	close	0	intact	none	none	0	0	0.764061	0	1	left	yellow	1	0.527	low
411	7	3	0	auto	1.5	1.51092	blue	0	up	up	GLO	left	close	1	intact	intact	202647f1-9373-4eb4-ac9a-27bf605f227d_fps_avg_aud.mp4	1	202	2.13062	0.995659	2	up	blue	1	0.528	low
411	7	4	0	auto	1.5	1.51583	green	1	left	left	GLO	left	close	0	intact	none	none	0	0	0.73093	0	1	right	green	1	0.529	low
411	7	5	0	auto	1.5	1.51305	blue	1	right	right	GLO	right	close	0	intact	none	none	0	0	1.39877	0	1	up	blue	1	0.53	low
411	7	6	0	auto	1.5	1.51314	red	1	up	up	GLO	right	close	1	intact	intact	e6c6cdbe-2a63-4eeb-b544-6fc0a25dc157_fps_avg_aud.mp4	1	45	0.731208	0.200008	1	down	red	1	0.531	low
411	7	7	0	auto	1.5	1.51271	red	0	down	down	GLO	right	far	1	intact	intact	October_2015_fps_avg_aud.mp4	1	26	0.697985	0.100515	1	down	red	1	0.532	low
411	7	8	0	auto	1.5	1.51429	red	0	down	down	GLO	left	far	0	intact	none	none	0	0	0.530359	0	1	down	red	1	0.533	low
411	7	9	0	auto	1.5	1.5119	red	1	right	right	GLO	right	far	0	intact	none	none	0	0	0.530844	0	1	down	red	1	0.534	low
411	7	10	0	auto	1.5	1.5133	yellow	1	up	up	GLO	right	far	1	intact	intact	bca3f84c-663e-49dd-9b23-05262dbf1e96_fps_avg_aud.mp4	1	35	0.705257	0.166137	1	left	yellow	1	0.535	low
411	7	11	0	auto	1.5	1.5142	green	0	right	right	GLO	left	far	1	intact	intact	32b66b3c-9f3a-4856-9278-87ca4048d48e_fps_avg_aud.mp4	1	37	0.681127	0.14969	1	right	green	1	0.536	low
411	7	12	0	auto	1.5	1.51258	red	1	up	up	GLO	right	close	1	intact	intact	049f3843-4d05-4200-8b41-7c0b71c68f4c_fps_avg_aud.mp4	1	78	0.817649	0.37137	1	up	blue	0	0.535	low
411	7	13	0	auto	1.5	1.51342	yellow	0	left	left	GLO	right	far	1	intact	intact	e3ba147b-ae8e-4b27-9412-577f6cfd64f4_fps_avg_aud.mp4	1	50	0.778529	0.265983	1	left	yellow	1	0.536	low
411	7	14	0	auto	1.5	1.51271	blue	0	up	up	GLO	right	close	1	intact	intact	b151d8a6-cbea-4f58-ab0f-6c21bc545c88_fps_avg_aud.mp4	1	136	1.34763	0.698582	2	up	blue	1	0.537	low
411	7	15	0	auto	1.5	1.51125	yellow	1	right	right	GLO	left	far	1	intact	intact	Aug30_fps_avg_aud.mp4	1	49	2.2826	0.231619	1	left	yellow	1	0.538	low
411	7	16	0	auto	1.5	1.51245	red	0	down	down	GLO	right	far	1	intact	intact	058bdf98-bb64-4851-92f5-ffad71866ee8_fps_avg_aud.mp4	1	100	0.977301	0.493794	1	down	red	1	0.539	low
411	7	17	0	auto	1.5	1.51273	green	0	right	right	GLO	right	close	1	intact	intact	Apr19_fps_avg_aud.mp4	1	0	0.714206	0	1	right	green	1	0.54	low
411	7	18	0	auto	1.5	1.51444	red	0	down	down	GLO	right	close	1	intact	intact	592c03b4-010b-4f30-8521-fbf254e827b0_fps_avg_aud.mp4	1	202	1.38171	0.961527	1	down	red	1	0.541	low
411	7	19	0	auto	1.5	1.51428	blue	1	left	left	GLO	left	close	1	intact	intact	4d681112-07b2-4265-a7e1-d188bc4f8511_fps_avg_aud.mp4	1	263	1.48136	1.16502	2	left	yellow	0	0.54	low
411	7	20	0	auto	1.5	1.51277	green	1	down	down	GLO	right	far	1	intact	intact	c3c668bd-3353-4887-b3ff-6d0225f5629c_fps_avg_aud.mp4	1	100	0.989821	0.596937	1	right	green	1	0.541	low
411	7	21	0	auto	1.5	1.51004	green	0	right	right	GLO	right	close	0	intact	none	none	0	0	0.698028	0	1	right	green	1	0.542	low
411	7	22	0	auto	1.5	1.51238	green	1	left	left	GLO	right	close	0	intact	none	none	0	0	0.731411	0	1	right	green	1	0.543	low
411	7	23	0	auto	1.5	NaN	green	0	right	right	GLO	none	close	1	intact	intact	bbadcc83-10bb-4a2d-a28a-1d6b44f33770_fps_avg_aud.mp4	0	0	NaN	NaN	NaN	none	none	NaN	0.543	low
411	7	24	0	auto	1.5	NaN	yellow	0	left	left	GLO	none	close	0	intact	none	none	0	0	NaN	NaN	NaN	none	none	NaN	0.543	low
411	7	25	0	auto	1.5	NaN	blue	0	up	up	GLO	none	far	0	intact	none	none	0	0	NaN	NaN	NaN	none	none	NaN	0.543	low
411	7	26	0	auto	1.5	NaN	blue	1	down	down	GLO	none	close	1	intact	intact	10110e03-827e-4196-8676-097b68a947cd_fps_avg_aud.mp4	0	0	NaN	NaN	NaN	none	none	NaN	0.543	low
411	7	27	0	auto	1.5	NaN	red	0	down	down	GLO	none	close	1	intact	intact	f001cded-b985-4905-a6ac-c1793ff8fab2_fps_avg_aud.mp4	0	0	NaN	NaN	NaN	none	none	NaN	0.543	low
411	7	28	0	auto	1.5	NaN	yellow	0	left	left	GLO	none	close	0	intact	none	none	0	0	NaN	NaN	NaN	none	none	NaN	0.543	low
411	7	29	0	auto	1.5	NaN	blue	0	up	up	GLO	none	far	1	intact	intact	e3992607-d25b-430c-bd18-12cb4a6d1b28_fps_avg_aud.mp4	0	0	NaN	NaN	NaN	none	none	NaN	0.543	low
411	7	30	0	auto	1.5	NaN	green	0	right	right	GLO	none	far	1	intact	intact	e8c6c3f9-933c-4d98-9013-684e2acc2e1e_fps_avg_aud.mp4	0	0	NaN	NaN	NaN	none	none	NaN	0.543	low
411	7	31	0	auto	1.5	NaN	blue	0	up	up	GLO	none	close	1	intact	intact	fd4a95d6-f171-4c0b-8de2-e9ca909c9eff_fps_avg_aud.mp4	0	0	NaN	NaN	NaN	none	none	NaN	0.543	low
411	7	32	0	auto	1.5	NaN	yellow	1	down	down	GLO	none	far	0	intact	none	none	0	0	NaN	NaN	NaN	none	none	NaN	0.543	low
411	7	33	0	auto	1.5	NaN	red	0	down	down	GLO	none	close	0	intact	none	none	0	0	NaN	NaN	NaN	none	none	NaN	0.543	low
411	7	34	0	auto	1.5	NaN	yellow	1	down	down	GLO	none	far	1	intact	intact	June_112016_fps_avg_aud.mp4	0	0	NaN	NaN	NaN	none	none	NaN	0.543	low
411	7	35	0	auto	1.5	NaN	red	1	left	left	GLO	none	close	1	intact	intact	b35409aa-6325-4736-bc0d-526af5b26b83_fps_avg_aud.mp4	0	0	NaN	NaN	NaN	none	none	NaN	0.543	low
411	7	36	0	auto	1.5	NaN	yellow	1	down	down	GLO	none	far	1	intact	intact	Sep30_fps_avg_aud.mp4	0	0	NaN	NaN	NaN	none	none	NaN	0.543	low
411	7	37	0	auto	1.5	NaN	blue	1	left	left	GLO	none	close	0	intact	none	none	0	0	NaN	NaN	NaN	none	none	NaN	0.543	low
411	8	1	0	self	1.5	1.51073	blue	0	up	up	GLO	left	close	1	intact	intact	69d4f1be-9d50-4cd5-8475-2fb4a62d07e2_fps_avg_aud.mp4	0	0	0.714847	0	1	up	blue	1	0.553	high
411	8	2	0	self	1.5	1.51522	green	0	right	right	GLO	right	far	1	intact	intact	2ad8c2cc-f109-45c5-925b-f1af257730e3_fps_avg_aud.mp4	0	0	0.590907	0	1	right	green	1	0.563	high
411	8	3	0	self	1.5	1.5111	red	1	left	left	GLO	right	far	1	intact	intact	ab1e6c91-a115-4b2d-8609-b4e2233254d6_fps_avg_aud.mp4	0	0	0.731912	0	1	down	red	1	0.573	high
411	8	4	0	self	1.5	1.51006	green	1	down	down	GLO	left	close	1	intact	intact	Mar8_fps_avg_aud.mp4	0	0	0.697972	0	1	right	green	1	0.583	high
411	8	5	0	self	1.5	1.51344	green	0	right	right	GLO	left	far	1	intact	intact	0602c0a8-082a-4bca-9f5b-70795017698f_fps_avg_aud.mp4	0	0	0.547637	0	1	right	green	1	0.593	high
411	8	6	0	self	1.5	1.51295	yellow	0	left	left	GLO	right	far	1	intact	intact	Jan13_fps_avg_aud.mp4	0	0	1.28194	0	1	left	yellow	1	0.603	high
411	8	7	0	self	1.5	1.51256	yellow	1	down	down	GLO	right	close	1	intact	intact	3787d5d7-bc65-4720-b93c-344c8ca85f75_fps_avg_aud.mp4	0	0	0.498683	0	1	left	yellow	1	0.613	high
411	8	8	0	self	1.5	1.51275	blue	0	up	up	GLO	left	far	1	intact	intact	Jan1_fps_avg_aud.mp4	0	0	0.663285	0	1	up	blue	1	0.623	high
411	8	9	0	self	1.5	1.51177	red	0	down	down	GLO	right	far	1	intact	intact	August_2016_fps_avg_aud.mp4	0	0	0.64808	0	1	down	red	1	0.633	high
411	8	10	0	self	1.5	1.51275	green	1	left	left	GLO	right	close	1	intact	intact	fb42eb92-ecec-41cf-8ef3-e4a7b0a219f1_fps_avg_aud.mp4	0	0	0.581572	0	1	right	green	1	0.643	high
411	8	11	0	self	1.5	1.51104	red	0	down	down	GLO	right	close	1	intact	intact	a707cf2a-2929-40a6-a19c-21d84be0dc1e_fps_avg_aud.mp4	0	0	0.555733	0	1	down	red	1	0.653	high
411	8	12	0	self	1.5	1.51262	yellow	1	right	right	GLO	right	close	1	intact	intact	July_2015_(1)_fps_avg_aud.mp4	0	0	0.698703	0	1	left	yellow	1	0.663	high
411	8	13	0	self	1.5	1.51221	red	1	up	up	GLO	left	close	1	intact	intact	e83d47c2-3289-4bb3-810c-afface120ccd_fps_avg_aud.mp4	0	0	0.680984	0	1	down	red	1	0.673	high
411	8	14	0	self	1.5	1.5106	blue	0	up	up	GLO	left	close	1	intact	intact	af1072d0-b5fe-435b-b10d-545750eb973b_fps_avg_aud.mp4	0	0	0.481938	0	1	up	blue	1	0.683	high
411	8	15	0	self	1.5	1.51083	yellow	1	right	right	GLO	right	far	1	intact	intact	Apr15_fps_avg_aud.mp4	0	0	0.699331	0	1	left	yellow	1	0.693	high
411	8	16	0	self	1.5	1.51233	blue	0	up	up	GLO	right	close	1	intact	intact	9747c74d-dde2-4f34-b67e-0e02a9c1a69c_fps_avg_aud.mp4	0	0	0.650044	0	1	up	blue	1	0.703	high
411	8	17	0	self	1.5	1.51025	red	0	down	down	GLO	right	close	1	intact	intact	a390325a-c9a6-4240-9459-3271767e2980_fps_avg_aud.mp4	0	0	0.638891	0	1	down	red	1	0.713	high
411	8	18	0	self	1.5	1.51076	red	0	down	down	GLO	right	far	1	intact	intact	Nov6_fps_avg_aud.mp4	0	0	0.631814	0	1	down	red	1	0.723	high
411	8	19	0	self	1.5	1.51177	green	0	right	right	GLO	right	close	1	intact	intact	d0082a79-d6fc-4855-80df-f443f4a14e37_fps_avg_aud.mp4	0	0	0.43939	0	1	right	green	1	0.733	high
411	8	20	0	self	1.5	1.51405	blue	0	up	up	GLO	left	close	1	intact	intact	ea69ea96-da66-4080-96c0-6671ca9fd051_fps_avg_aud.mp4	0	0	0.789436	0	1	up	blue	1	0.743	high
411	8	21	0	self	1.5	1.51148	blue	1	left	left	GLO	left	close	1	intact	intact	b442d744-edd6-478c-94f1-be50e05465cc_fps_avg_aud.mp4	0	0	0.605988	0	1	up	blue	1	0.753	high
411	8	22	0	self	1.5	1.51448	yellow	1	up	up	GLO	right	close	1	intact	intact	ac670a32-9758-4aa8-b876-775cfe4f2e47_fps_avg_aud.mp4	0	0	0.64926	0	1	left	yellow	1	0.763	high
411	8	23	0	self	1.5	1.51094	blue	0	up	up	GLO	left	far	1	intact	intact	030a135d-605a-42ea-902a-469aeded471a_fps_avg_aud.mp4	0	0	0.798024	0	1	up	blue	1	0.773	high
411	8	24	0	self	1.5	1.51147	blue	0	up	up	GLO	left	far	1	intact	intact	cfde3402-3742-4dda-82a3-7c69c497e0f8_fps_avg_aud.mp4	0	0	0.455067	0	1	up	blue	1	0.783	high
411	8	25	0	self	1.5	1.5137	blue	1	right	right	GLO	left	close	1	intact	intact	98afb848-1bd2-46a6-89c7-32d60d6d1855_fps_avg_aud.mp4	0	0	0.50604	0	1	up	blue	1	0.793	high
411	8	26	0	self	1.5	1.51264	yellow	0	left	left	GLO	left	close	1	intact	intact	5f534c39-dfe8-4a8d-a678-c406bcf9154d_fps_avg_aud.mp4	0	0	0.531213	0	1	left	yellow	1	0.803	high
411	8	27	0	self	1.5	1.51091	red	1	left	left	GLO	right	close	1	intact	intact	Nov9_fps_avg_aud.mp4	0	0	0.796711	0	1	down	red	1	0.813	high
411	8	28	0	self	1.5	NaN	blue	0	up	up	GLO	none	far	1	intact	intact	b8f7a383-ba3e-49db-977d-18cbd8702864_fps_avg_aud.mp4	0	0	NaN	NaN	NaN	none	none	NaN	0.813	high
411	8	29	0	self	1.5	NaN	yellow	0	left	left	GLO	none	far	1	intact	intact	Jan8_fps_avg_aud.mp4	0	0	NaN	NaN	NaN	none	none	NaN	0.813	high
411	8	30	0	self	1.5	NaN	yellow	1	up	up	GLO	none	far	1	intact	intact	Jan4_fps_avg_aud.mp4	0	0	NaN	NaN	NaN	none	none	NaN	0.813	high
411	8	31	0	self	1.5	NaN	blue	1	left	left	GLO	none	far	1	intact	intact	483a899a-71a0-49cf-b2ba-f13374d6b0a8_fps_avg_aud.mp4	0	0	NaN	NaN	NaN	none	none	NaN	0.813	high
411	8	32	0	self	1.5	NaN	yellow	0	left	left	GLO	none	close	1	intact	intact	c4c0c443-720b-4afe-955c-b60460b3fa87_fps_avg_aud.mp4	0	0	NaN	NaN	NaN	none	none	NaN	0.813	high
411	8	33	0	self	1.5	NaN	red	0	down	down	GLO	none	far	1	intact	intact	5e28083f-f416-4168-bfde-2e1ddfaaf60e_fps_avg_aud.mp4	0	0	NaN	NaN	NaN	none	none	NaN	0.813	high
411	8	34	0	self	1.5	NaN	green	0	right	right	GLO	none	close	1	intact	intact	ede4a096-21dc-4ed4-9b28-6df0a7f6fe6b_fps_avg_aud.mp4	0	0	NaN	NaN	NaN	none	none	NaN	0.813	high
411	8	35	0	self	1.5	NaN	green	0	right	right	GLO	none	far	1	intact	intact	76b50970-7143-4993-96e1-54ee18b8278e_fps_avg_aud.mp4	0	0	NaN	NaN	NaN	none	none	NaN	0.813	high
411	8	36	0	self	1.5	NaN	blue	1	right	right	GLO	none	close	1	intact	intact	34cddff1-7a1a-4e71-be66-8a745a1d42f4_fps_avg_aud.mp4	0	0	NaN	NaN	NaN	none	none	NaN	0.813	high
411	8	37	0	self	1.5	NaN	blue	0	up	up	GLO	none	close	1	intact	intact	11f7e237-860e-4d5b-9743-89fc16a3360b_fps_avg_aud.mp4	0	0	NaN	NaN	NaN	none	none	NaN	0.813	high
411	9	1	0	auto	1.5	1.5164	green	1	left	left	GLO	right	far	0	intact	none	none	0	0	1.03076	0	1	right	green	1	0.823	high
411	9	2	0	auto	1.5	1.5118	green	0	right	right	GLO	left	far	1	intact	intact	e4815a42-3a54-463e-aeba-1230af20106d_fps_avg_aud.mp4	1	0	0.513972	0	1	right	green	1	0.833	high
411	9	3	0	auto	1.5	1.51267	yellow	0	left	left	GLO	left	far	1	intact	intact	9bd7a199-78f1-4f14-9fde-3a11c0ebd236_fps_avg_aud.mp4	1	0	0.637956	0	1	left	yellow	1	0.843	high
411	9	4	0	auto	1.5	1.51211	blue	1	down	down	GLO	right	far	1	intact	intact	May_2016_(1)_fps_avg_aud.mp4	1	0	0.915936	0	1	up	blue	1	0.853	high
411	9	5	0	auto	1.5	1.51313	red	1	up	up	GLO	right	far	1	intact	intact	f7063dab-b99f-4ced-99a1-d8e067de3ccd_fps_avg_aud.mp4	1	0	0.649395	0	1	down	red	1	0.863	high
411	9	6	0	auto	1.5	1.51012	yellow	0	left	left	GLO	left	far	1	intact	intact	326ee18c-0cd5-4c39-ac0f-082f53449aa4_fps_avg_aud.mp4	1	0	0.898492	0	1	left	yellow	1	0.873	high
411	9	7	0	auto	1.5	1.51385	blue	1	left	left	GLO	right	far	1	intact	intact	Jun21_fps_avg_aud.mp4	1	0	1.1051	0	1	up	blue	1	0.883	high
411	9	8	0	auto	1.5	1.51325	green	1	up	up	GLO	left	far	1	intact	intact	61be81ef-2338-498f-a09a-fd23aea0f3ec_fps_avg_aud.mp4	1	0	0.781738	0	1	right	green	1	0.893	high
411	9	9	0	auto	1.5	1.51166	green	1	up	up	GLO	right	far	1	intact	intact	e5ba6207-d3a1-4e68-9c36-3fbb5658f232_fps_avg_aud.mp4	1	168	1.31342	0.623259	2	right	green	1	0.903	high
411	9	10	0	auto	1.5	1.51331	blue	0	up	up	GLO	right	close	1	intact	intact	July6_fps_avg_aud.mp4	1	0	0.957393	0	1	up	blue	1	0.913	high
411	9	11	0	auto	1.5	1.51099	yellow	0	left	left	GLO	left	far	1	intact	intact	99e5912a-fa6d-43dc-a1df-f887e6ef8a00_fps_avg_aud.mp4	1	10	0.70776	0.0598064	1	left	yellow	1	0.923	high
411	9	12	0	auto	1.5	1.51122	yellow	0	left	left	GLO	left	close	1	intact	intact	Aug11_fps_avg_aud.mp4	1	0	0.737539	0	1	left	yellow	1	0.933	high
411	9	13	0	auto	1.5	1.51408	green	0	right	right	GLO	right	close	1	intact	intact	August_2016_fps_avg_aud.mp4	1	25	0.647451	0.136074	2	right	green	1	0.943	high
411	9	14	0	auto	1.5	1.51025	green	1	up	up	GLO	left	close	0	intact	none	none	0	0	1.81409	0	1	right	green	1	0.953	high
411	9	15	0	auto	1.5	1.51239	blue	0	up	up	GLO	right	far	1	intact	intact	960000ea-ab44-4258-8824-51f8fdf7a806_fps_avg_aud.mp4	1	25	0.709468	0.0977383	1	up	blue	1	0.963	high
411	9	16	0	auto	1.5	1.51158	yellow	0	left	left	GLO	right	close	0	intact	none	none	0	0	0.614686	0	1	left	yellow	1	0.973	high
411	9	17	0	auto	1.5	1.50911	blue	1	left	left	GLO	right	close	1	intact	intact	July25_fps_avg_aud.mp4	1	0	1.12985	0	1	up	blue	1	0.983	high
411	9	18	0	auto	1.5	1.51161	green	0	right	right	GLO	left	far	0	intact	none	none	0	0	0.680455	0	1	right	green	1	0.993	high
411	9	19	0	auto	1.5	1.51233	blue	0	up	up	GLO	right	close	1	intact	intact	August_2016_(1)_fps_avg_aud.mp4	1	0	0.653435	0	1	up	blue	1	1.003	high
411	9	20	0	auto	1.5	1.51133	blue	0	up	up	GLO	right	far	1	intact	intact	December_2015_(1)_fps_avg_aud.mp4	1	0	0.50614	0	1	up	blue	1	1.013	high
411	9	21	0	auto	1.5	1.51063	green	1	up	up	GLO	right	close	0	intact	none	none	0	0	0.7088	0	1	right	green	1	1.023	high
411	9	22	0	auto	1.5	1.51198	red	0	down	down	GLO	right	far	0	intact	none	none	0	0	0.671396	0	1	down	red	1	1.033	high
411	9	23	0	auto	1.5	1.51165	green	0	right	right	GLO	right	far	1	intact	intact	bfb38b58-a56a-427a-a233-3b6663beed7c_fps_avg_aud.mp4	1	0	0.581189	0	1	right	green	1	1.043	high
411	9	24	0	auto	1.5	1.51398	yellow	1	right	right	GLO	right	far	1	intact	intact	September_14_2016_fps_avg_aud.mp4	1	12	0.755718	0.0506317	1	left	yellow	1	1.053	high
411	9	25	0	auto	1.5	1.51299	green	0	right	right	GLO	left	close	1	intact	intact	e57a35d6-39b7-4b9c-a4a1-844e0bebd3c1_fps_avg_aud.mp4	1	0	0.718474	0	1	right	green	1	1.063	high
411	9	26	0	auto	1.5	NaN	blue	0	up	up	GLO	none	far	1	intact	intact	June_2016_(2)_fps_avg_aud.mp4	0	0	NaN	NaN	NaN	none	none	NaN	1.063	high
411	9	27	0	auto	1.5	NaN	red	0	down	down	GLO	none	close	1	intact	intact	38a0ff6f-f976-4235-af7e-49859d376c46_fps_avg_aud.mp4	0	0	NaN	NaN	NaN	none	none	NaN	1.063	high
411	9	28	0	auto	1.5	NaN	red	1	up	up	GLO	none	far	1	intact	intact	ea69ea96-da66-4080-96c0-6671ca9fd051_fps_avg_aud.mp4	0	0	NaN	NaN	NaN	none	none	NaN	1.063	high
411	9	29	0	auto	1.5	NaN	green	1	left	left	GLO	none	far	0	intact	none	none	0	0	NaN	NaN	NaN	none	none	NaN	1.063	high
411	9	30	0	auto	1.5	NaN	yellow	0	left	left	GLO	none	close	1	intact	intact	Nov24_fps_avg_aud.mp4	0	0	NaN	NaN	NaN	none	none	NaN	1.063	high
411	9	31	0	auto	1.5	NaN	red	0	down	down	GLO	none	close	1	intact	intact	8b0c9e6a-53bd-46f6-908f-7a8316798b92_fps_avg_aud.mp4	0	0	NaN	NaN	NaN	none	none	NaN	1.063	high
411	9	32	0	auto	1.5	NaN	red	0	down	down	GLO	none	far	0	intact	none	none	0	0	NaN	NaN	NaN	none	none	NaN	1.063	high
411	9	33	0	auto	1.5	NaN	blue	0	up	up	GLO	none	close	1	intact	intact	af8a1933-c829-43c1-8393-4abd55081a1d_fps_avg_aud.mp4	0	0	NaN	NaN	NaN	none	none	NaN	1.063	high
411	9	34	0	auto	1.5	NaN	yellow	0	left	left	GLO	none	far	0	intact	none	none	0	0	NaN	NaN	NaN	none	none	NaN	1.063	high
411	9	35	0	auto	1.5	NaN	green	1	down	down	GLO	none	far	1	intact	intact	April_2015_(1)_fps_avg_aud.mp4	0	0	NaN	NaN	NaN	none	none	NaN	1.063	high
411	9	36	0	auto	1.5	NaN	blue	1	right	right	GLO	none	close	1	intact	intact	Jan30_fps_avg_aud.mp4	0	0	NaN	NaN	NaN	none	none	NaN	1.063	high
411	9	37	0	auto	1.5	NaN	red	1	up	up	GLO	none	far	1	intact	intact	Febraury_2016_fps_avg_aud.mp4	0	0	NaN	NaN	NaN	none	none	NaN	1.063	high
411	10	1	0	auto	1.5	1.5148	green	0	right	right	GLO	right	far	0	intact	none	none	0	0	2.4893	0	1	right	green	1	1.064	low
411	10	2	0	auto	1.5	1.51141	red	0	down	down	GLO	right	close	0	intact	none	none	0	0	2.52976	0	1	down	red	1	1.065	low
411	10	3	0	auto	1.5	1.51378	yellow	0	left	left	GLO	left	far	1	intact	intact	241df9f5-fbf5-49b9-a03c-764ba4b6ace9_fps_avg_aud.mp4	1	574	3.48224	2.30135	2	left	yellow	1	1.066	low
411	10	4	0	auto	1.5	1.51113	yellow	0	left	left	GLO	left	close	1	intact	intact	may_2015_fps_avg_aud.mp4	1	526	2.9149	2.54078	1	left	yellow	1	1.067	low
411	10	5	0	auto	1.5	1.51084	red	1	right	right	GLO	right	far	0	intact	none	none	0	0	1.01461	0	1	down	red	1	1.068	low
411	10	6	0	auto	1.5	1.51154	blue	1	left	left	GLO	right	close	1	intact	intact	Nov30_fps_avg_aud.mp4	1	256	2.41425	0.953415	2	up	blue	1	1.069	low
411	10	7	0	auto	1.5	1.51353	red	1	up	up	GLO	right	far	0	intact	none	none	0	0	1.04885	0	1	down	red	1	1.07	low
411	10	8	0	auto	1.5	1.51316	yellow	0	left	left	GLO	left	far	1	intact	intact	ea6675d4-3684-48c3-9bd0-c32d38c48c9e_fps_avg_aud.mp4	1	233	1.83119	1.28354	1	left	yellow	1	1.071	low
411	10	9	0	auto	1.5	1.51346	red	1	left	left	GLO	left	close	1	intact	intact	0f23035e-0077-49bd-b516-950aa27b63b5_fps_avg_aud.mp4	1	131	1.46321	0.732953	1	down	red	1	1.072	low
411	10	10	0	auto	1.5	1.5128	green	1	down	down	GLO	left	far	0	intact	none	none	0	0	0.698611	0	1	right	green	1	1.073	low
411	10	11	0	auto	1.5	1.51138	blue	0	up	up	GLO	left	far	1	intact	intact	e00791ee-f5a4-4315-8214-e183c3e1d2cf_fps_avg_aud.mp4	1	807	5.08266	3.34086	1	up	blue	1	1.074	low
411	10	12	0	auto	1.5	1.51023	blue	0	up	up	GLO	right	close	1	intact	intact	July_2015_(2)_fps_avg_aud.mp4	1	157	1.68013	0.85497	1	up	blue	1	1.075	low
411	10	13	0	auto	1.5	1.51237	red	1	up	up	GLO	right	far	0	intact	none	none	0	0	1.29097	0	1	down	red	1	1.076	low
411	10	14	0	auto	1.5	1.51294	yellow	1	up	up	GLO	left	far	0	intact	none	none	0	0	0.831864	0	1	left	yellow	1	1.077	low
411	10	15	0	auto	1.5	1.51326	blue	1	left	left	GLO	right	close	1	intact	intact	359d82dd-3d4c-4029-a89b-66422745c056_fps_avg_aud.mp4	1	40	0.847303	0.233071	1	up	blue	1	1.078	low
411	10	16	0	auto	1.5	1.51335	yellow	1	right	right	GLO	right	close	1	intact	intact	eec24f3a-496f-4cb7-8f48-5bf5530f3e96_fps_avg_aud.mp4	1	60	1.16968	0.252409	1	right	green	0	1.077	low
411	10	17	0	auto	1.5	1.51151	red	1	left	left	GLO	right	close	1	intact	intact	July21_fps_avg_aud.mp4	1	276	2.70886	1.39768	1	down	red	1	1.078	low
411	10	18	0	auto	1.5	NaN	blue	0	up	up	GLO	none	close	1	intact	intact	e8c6c3f9-933c-4d98-9013-684e2acc2e1e_fps_avg_aud.mp4	0	0	NaN	NaN	NaN	none	none	NaN	1.078	low
411	10	19	0	auto	1.5	NaN	green	0	right	right	GLO	none	far	0	intact	none	none	0	0	NaN	NaN	NaN	none	none	NaN	1.078	low
411	10	20	0	auto	1.5	NaN	green	1	left	left	GLO	none	far	1	intact	intact	Oct30_fps_avg_aud.mp4	0	0	NaN	NaN	NaN	none	none	NaN	1.078	low
411	10	21	0	auto	1.5	NaN	red	1	left	left	GLO	none	far	1	intact	intact	2d9948f5-94d5-495f-a74e-80174a3c508a_fps_avg_aud.mp4	0	0	NaN	NaN	NaN	none	none	NaN	1.078	low
411	10	22	0	auto	1.5	NaN	yellow	0	left	left	GLO	none	far	1	intact	intact	ae961612-f052-4542-a69c-195487c48d51_fps_avg_aud.mp4	0	0	NaN	NaN	NaN	none	none	NaN	1.078	low
411	10	23	0	auto	1.5	NaN	red	0	down	down	GLO	none	close	0	intact	none	none	0	0	NaN	NaN	NaN	none	none	NaN	1.078	low
411	10	24	0	auto	1.5	NaN	blue	0	up	up	GLO	none	close	1	intact	intact	March_15_2016_fps_avg_aud.mp4	0	0	NaN	NaN	NaN	none	none	NaN	1.078	low
411	10	25	0	auto	1.5	NaN	yellow	1	right	right	GLO	none	close	0	intact	none	none	0	0	NaN	NaN	NaN	none	none	NaN	1.078	low
411	10	26	0	auto	1.5	NaN	yellow	1	down	down	GLO	none	far	0	intact	none	none	0	0	NaN	NaN	NaN	none	none	NaN	1.078	low
411	10	27	0	auto	1.5	NaN	red	0	down	down	GLO	none	close	1	intact	intact	Nmarch1222015_fps_avg_aud.mp4	0	0	NaN	NaN	NaN	none	none	NaN	1.078	low
411	10	28	0	auto	1.5	NaN	blue	0	up	up	GLO	none	close	1	intact	intact	11f7e237-860e-4d5b-9743-89fc16a3360b_fps_avg_aud.mp4	0	0	NaN	NaN	NaN	none	none	NaN	1.078	low
411	10	29	0	auto	1.5	NaN	yellow	0	left	left	GLO	none	far	0	intact	none	none	0	0	NaN	NaN	NaN	none	none	NaN	1.078	low
411	10	30	0	auto	1.5	NaN	green	1	left	left	GLO	none	far	0	intact	none	none	0	0	NaN	NaN	NaN	none	none	NaN	1.078	low
411	10	31	0	auto	1.5	NaN	blue	1	left	left	GLO	none	far	0	intact	none	none	0	0	NaN	NaN	NaN	none	none	NaN	1.078	low
411	10	32	0	auto	1.5	NaN	yellow	1	down	down	GLO	none	far	1	intact	intact	7c00c850-e528-473f-895e-ee9be83c7963_fps_avg_aud.mp4	0	0	NaN	NaN	NaN	none	none	NaN	1.078	low
411	10	33	0	auto	1.5	NaN	yellow	1	up	up	GLO	none	close	1	intact	intact	ec93e301-9c09-4bba-94b5-edac54ba0e07_fps_avg_aud.mp4	0	0	NaN	NaN	NaN	none	none	NaN	1.078	low
411	10	34	0	auto	1.5	NaN	red	0	down	down	GLO	none	far	1	intact	intact	d0082a79-d6fc-4855-80df-f443f4a14e37_fps_avg_aud.mp4	0	0	NaN	NaN	NaN	none	none	NaN	1.078	low
411	10	35	0	auto	1.5	NaN	red	0	down	down	GLO	none	far	0	intact	none	none	0	0	NaN	NaN	NaN	none	none	NaN	1.078	low
411	10	36	0	auto	1.5	NaN	blue	1	down	down	GLO	none	close	1	intact	intact	b442d744-edd6-478c-94f1-be50e05465cc_fps_avg_aud.mp4	0	0	NaN	NaN	NaN	none	none	NaN	1.078	low
411	10	37	0	auto	1.5	NaN	blue	1	down	down	GLO	none	close	1	intact	intact	January_4_2016_fps_avg_aud.mp4	0	0	NaN	NaN	NaN	none	none	NaN	1.078	low
411	11	1	0	self	1.5	1.51224	red	0	down	down	GLO	right	close	1	intact	intact	63b4d034-af4a-4a03-8aa0-83818020367c_fps_avg_aud.mp4	0	0	1.70839	0	1	down	red	1	1.079	low
411	11	2	0	self	1.5	1.51273	red	0	down	down	GLO	right	close	1	intact	intact	Feb27_fps_avg_aud.mp4	1	154	0.783791	0.685947	1	down	red	1	1.08	low
411	11	3	0	self	1.5	1.51175	red	1	left	left	GLO	right	close	1	intact	intact	8b186ca3-65a3-4740-8611-404063ae0ec7_fps_avg_aud.mp4	1	169	0.759952	0.666695	1	down	red	1	1.081	low
411	11	4	0	self	1.5	1.51308	yellow	0	left	left	GLO	right	close	1	intact	intact	79665cdb-61c8-40fb-9ffc-0682e57caf2f_fps_avg_aud.mp4	1	193	0.803173	0.705404	1	left	yellow	1	1.082	low
411	11	5	0	self	1.5	1.51101	green	0	right	right	GLO	right	close	1	intact	intact	0ab2bdff-924c-46d2-b610-671d6f4f673e_fps_avg_aud.mp4	1	76	0.406814	0.316438	1	right	green	1	1.083	low
411	11	6	0	self	1.5	1.51286	blue	0	up	up	GLO	right	far	1	intact	intact	73d0e54a-1b4c-4f00-a562-b71360349bdf_fps_avg_aud.mp4	1	0	0.61235	0	1	up	blue	1	1.084	low
411	11	7	0	self	1.5	1.51373	green	0	right	right	GLO	right	far	1	intact	intact	May28_fps_avg_aud.mp4	1	0	0.614054	0	1	right	green	1	1.085	low
411	11	8	0	self	1.5	1.51534	blue	1	left	left	GLO	right	close	1	intact	intact	0ee64e11-96b9-4476-a12c-a99a4b58a965_fps_avg_aud.mp4	1	229	1.00497	0.913995	1	up	blue	1	1.086	low
411	11	9	0	self	1.5	1.51331	yellow	1	down	down	GLO	right	far	1	intact	intact	Febraury_2016_fps_avg_aud.mp4	0	0	0.680503	0	1	right	green	0	1.085	low
411	11	10	0	self	1.5	1.51169	green	0	right	right	GLO	left	close	1	intact	intact	Sep27_fps_avg_aud.mp4	0	0	0.575622	0	1	right	green	1	1.086	low
411	11	11	0	self	1.5	1.51037	blue	0	up	up	GLO	right	far	1	intact	intact	Nov6_fps_avg_aud.mp4	1	0	0.867716	0	1	up	blue	1	1.087	low
411	11	12	0	self	1.5	1.51458	red	1	up	up	GLO	left	far	1	intact	intact	ed9842b1-ccb5-4e6e-8fcb-d81eb3d6f297_fps_avg_aud.mp4	0	0	0.665505	0	1	down	red	1	1.088	low
411	11	13	0	self	1.5	1.5113	green	1	down	down	GLO	right	close	1	intact	intact	december_2015_(4)_fps_avg_aud.mp4	1	205	1.43152	1.1003	1	right	green	1	1.089	low
411	11	14	0	self	1.5	1.51492	blue	0	up	up	GLO	right	far	1	intact	intact	Dec8_fps_avg_aud.mp4	1	27	0.698037	0.0999937	1	up	blue	1	1.09	low
411	11	15	0	self	1.5	1.51456	blue	1	down	down	GLO	right	far	1	intact	intact	April_2015_fps_avg_aud.mp4	1	0	0.756549	0	1	up	blue	1	1.091	low
411	11	16	0	self	1.5	1.51554	blue	0	up	up	GLO	right	far	1	intact	intact	Jan5_fps_avg_aud.mp4	1	111	0.547699	0.449082	1	up	blue	1	1.092	low
411	11	17	0	self	1.5	1.51411	red	1	up	up	GLO	right	close	1	intact	intact	Jan27_fps_avg_aud.mp4	0	0	0.881531	0	1	down	red	1	1.093	low
411	11	18	0	self	1.5	1.51281	yellow	0	left	left	GLO	right	close	1	intact	intact	b4701d82-e6b3-47a6-bf5c-596818c9d778_fps_avg_aud.mp4	0	0	0.765474	0	1	left	yellow	1	1.094	low
411	11	19	0	self	1.5	1.51396	yellow	1	down	down	GLO	right	far	1	intact	intact	May18_fps_avg_aud.mp4	1	486	2.63421	2.33628	1	left	yellow	1	1.095	low
