ID	Block	Trials	Practice	VideoStart	ITI	ITI_measured	Color	Conflict	Global	Local	Task	Video_pos	Video_dist	Video_present	Video_cat_cond	Video_cat	Video	VideoPlayed	VideoCheck	RT	DT	Visits	KeyPress	KeyColor	Correct	Reward	RewardCond
414	1	1	1	none	0.5	0.525277	yellow	0	left	left	GLO	left	close	0	intact	none	none	0	0	1.64031	0	1	left	yellow	1	0	0
414	1	2	1	none	0.5	0.512623	yellow	0	left	left	GLO	right	far	0	intact	none	none	0	0	0.589614	0	1	left	yellow	1	0	0
414	1	3	1	none	0.5	0.511584	red	1	right	right	GLO	right	far	0	intact	none	none	0	0	1.88335	0	1	down	red	1	0	0
414	1	4	1	none	0.5	0.510308	blue	0	up	up	GLO	left	close	0	intact	none	none	0	0	0.857431	0	1	up	blue	1	0	0
414	1	5	1	none	0.5	0.516117	yellow	1	down	down	GLO	right	close	0	intact	none	none	0	0	0.753796	0	1	left	yellow	1	0	0
414	1	6	1	none	0.5	0.510299	green	1	left	left	GLO	left	far	0	intact	none	none	0	0	0.478826	0	1	right	green	1	0	0
414	1	7	1	none	0.5	0.513225	blue	0	up	up	GLO	right	close	0	intact	none	none	0	0	0.749084	0	1	up	blue	1	0	0
414	1	8	1	none	0.5	0.514076	red	0	down	down	GLO	left	far	0	intact	none	none	0	0	0.946198	0	1	down	red	1	0	0
414	1	9	1	none	0.5	0.514805	green	1	left	left	GLO	right	close	0	intact	none	none	0	0	0.699049	0	1	right	green	1	0	0
414	1	10	1	none	0.5	0.512175	blue	1	down	down	GLO	left	close	0	intact	none	none	0	0	0.742797	0	1	up	blue	1	0	0
414	1	11	1	none	0.5	0.512343	yellow	0	left	left	GLO	right	far	0	intact	none	none	0	0	0.646238	0	1	left	yellow	1	0	0
414	1	12	1	none	0.5	0.514665	red	1	right	right	GLO	right	far	0	intact	none	none	0	0	0.979676	0	1	down	red	1	0	0
414	1	13	1	none	0.5	0.511284	green	1	left	left	GLO	right	close	0	intact	none	none	0	0	0.608233	0	1	right	green	1	0	0
414	1	14	1	none	0.5	0.511754	blue	0	up	up	GLO	left	close	0	intact	none	none	0	0	0.550855	0	1	up	blue	1	0	0
414	1	15	1	none	0.5	0.513506	red	1	up	up	GLO	right	far	0	intact	none	none	0	0	1.1403	0	1	down	red	1	0	0
414	1	16	1	none	0.5	0.511349	blue	1	down	down	GLO	left	close	0	intact	none	none	0	0	0.655324	0	1	up	blue	1	0	0
414	1	17	1	none	0.5	0.514395	blue	0	up	up	GLO	left	far	0	intact	none	none	0	0	0.597816	0	1	up	blue	1	0	0
414	1	18	1	none	0.5	0.510744	blue	0	up	up	GLO	right	far	0	intact	none	none	0	0	0.548041	0	1	up	blue	1	0	0
414	1	19	1	none	0.5	0.512054	green	1	left	left	GLO	left	close	0	intact	none	none	0	0	0.693743	0	1	right	green	1	0	0
414	1	20	1	none	0.5	0.511808	blue	1	down	down	GLO	left	far	0	intact	none	none	0	0	0.892353	0	1	up	blue	1	0	0
414	1	21	1	none	0.5	0.510952	blue	1	down	down	GLO	left	far	0	intact	none	none	0	0	0.546766	0	1	up	blue	1	0	0
414	1	22	1	none	0.5	0.511379	green	1	down	down	GLO	left	far	0	intact	none	none	0	0	0.749445	0	1	right	green	1	0	0
414	1	23	1	none	0.5	0.513599	red	0	down	down	GLO	left	far	0	intact	none	none	0	0	1.15009	0	1	down	red	1	0	0
414	1	24	1	none	0.5	0.510596	yellow	0	left	left	GLO	left	close	0	intact	none	none	0	0	0.616593	0	1	left	yellow	1	0	0
414	1	25	1	none	0.5	0.51086	red	1	up	up	GLO	left	far	0	intact	none	none	0	0	0.997434	0	1	down	red	1	0	0
414	1	26	1	none	0.5	0.514455	blue	0	up	up	GLO	left	far	0	intact	none	none	0	0	0.848297	0	1	up	blue	1	0	0
414	1	27	1	none	0.5	0.514219	blue	0	up	up	GLO	right	close	0	intact	none	none	0	0	0.543824	0	1	up	blue	1	0	0
414	1	28	1	none	0.5	0.511461	blue	0	up	up	GLO	left	far	0	intact	none	none	0	0	0.433049	0	1	up	blue	1	0	0
414	1	29	1	none	0.5	0.509853	yellow	1	down	down	GLO	right	far	0	intact	none	none	0	0	0.931443	0	1	left	yellow	1	0	0
414	1	30	1	none	0.5	0.512732	yellow	0	left	left	GLO	left	close	0	intact	none	none	0	0	0.531331	0	1	left	yellow	1	0	0
414	1	31	1	none	0.5	0.513134	red	1	up	up	GLO	left	close	0	intact	none	none	0	0	1.04896	0	1	down	red	1	0	0
414	1	32	1	none	0.5	0.513132	green	1	down	down	GLO	right	far	0	intact	none	none	0	0	0.964391	0	1	right	green	1	0	0
414	1	33	1	none	0.5	0.512849	blue	0	up	up	GLO	left	far	0	intact	none	none	0	0	0.815166	0	1	up	blue	1	0	0
414	1	34	1	none	0.5	0.511932	green	0	right	right	GLO	left	far	0	intact	none	none	0	0	0.598766	0	1	right	green	1	0	0
414	1	35	1	none	0.5	0.513591	blue	0	up	up	GLO	left	close	0	intact	none	none	0	0	0.765189	0	1	up	blue	1	0	0
414	1	36	1	none	0.5	0.509326	blue	0	up	up	GLO	left	close	0	intact	none	none	0	0	0.547811	0	1	up	blue	1	0	0
414	1	37	1	none	0.5	0.511941	blue	1	down	down	GLO	right	far	0	intact	none	none	0	0	0.66474	0	1	up	blue	1	0	0
414	1	38	1	none	0.5	0.51083	blue	1	right	right	GLO	left	far	0	intact	none	none	0	0	0.649337	0	1	up	blue	1	0	0
414	1	39	1	none	0.5	0.513388	blue	1	down	down	GLO	right	far	0	intact	none	none	0	0	0.490577	0	1	up	blue	1	0	0
414	1	40	1	none	0.5	0.514669	green	0	right	right	GLO	left	close	0	intact	none	none	0	0	0.543486	0	1	right	green	1	0	0
414	1	41	1	none	0.5	0.513116	green	1	down	down	GLO	right	close	0	intact	none	none	0	0	0.662709	0	1	right	green	1	0	0
414	1	42	1	none	0.5	0.510672	red	1	right	right	GLO	right	far	0	intact	none	none	0	0	0.848552	0	1	down	red	1	0	0
414	1	43	1	none	0.5	0.511051	green	0	right	right	GLO	left	close	0	intact	none	none	0	0	0.564922	0	1	right	green	1	0	0
414	1	44	1	none	0.5	0.512654	red	0	down	down	GLO	right	close	0	intact	none	none	0	0	0.763801	0	1	down	red	1	0	0
414	1	45	1	none	0.5	0.512213	red	1	up	up	GLO	right	close	0	intact	none	none	0	0	0.59845	0	1	down	red	1	0	0
414	1	46	1	none	0.5	0.508595	blue	0	up	up	GLO	right	close	0	intact	none	none	0	0	1.12342	0	1	up	blue	1	0	0
414	1	47	1	none	0.5	0.512877	yellow	1	down	down	GLO	right	far	0	intact	none	none	0	0	1.24804	0	1	left	yellow	1	0	0
414	1	48	1	none	0.5	0.511151	green	0	right	right	GLO	left	far	0	intact	none	none	0	0	0.588126	0	1	right	green	1	0	0
414	1	49	1	none	0.5	0.51052	yellow	1	up	up	GLO	right	close	0	intact	none	none	0	0	1.99501	0	1	left	yellow	1	0	0
414	1	50	1	none	0.5	0.514186	green	1	left	left	GLO	right	far	0	intact	none	none	0	0	0.5114	0	1	right	green	1	0	0
414	1	51	1	none	0.5	0.508448	yellow	1	down	down	GLO	right	far	0	intact	none	none	0	0	0.515334	0	1	left	yellow	1	0	0
414	1	52	1	none	0.5	0.509865	yellow	0	left	left	GLO	right	close	0	intact	none	none	0	0	0.548761	0	1	left	yellow	1	0	0
414	1	53	1	none	0.5	0.512164	yellow	1	down	down	GLO	left	close	0	intact	none	none	0	0	0.514023	0	1	left	yellow	1	0	0
414	1	54	1	none	0.5	0.510519	blue	0	up	up	GLO	left	close	0	intact	none	none	0	0	1.74569	0	1	up	blue	1	0	0
414	1	55	1	none	0.5	0.509511	green	1	down	down	GLO	left	far	0	intact	none	none	0	0	0.548654	0	1	up	blue	0	0	0
414	1	56	1	none	0.5	0.513757	blue	0	up	up	GLO	left	far	0	intact	none	none	0	0	0.640984	0	1	up	blue	1	0	0
414	1	57	1	none	0.5	0.512256	green	1	down	down	GLO	left	close	0	intact	none	none	0	0	0.763932	0	1	right	green	1	0	0
414	1	58	1	none	1.5	1.51112	red	0	down	down	GLO	right	far	0	intact	none	none	0	0	1.69071	0	1	down	red	1	0	0
414	1	59	1	none	1.5	1.51095	red	1	up	up	GLO	left	far	0	intact	none	none	0	0	0.964374	0	1	down	red	1	0	0
414	1	60	1	none	1.5	1.51119	red	1	up	up	GLO	right	far	0	intact	none	none	0	0	0.447878	0	1	down	red	1	0	0
414	1	61	1	none	1.5	1.51022	yellow	1	up	up	GLO	right	close	0	intact	none	none	0	0	2.56554	0	1	left	yellow	1	0	0
414	1	62	1	none	1.5	1.5136	blue	1	right	right	GLO	left	far	0	intact	none	none	0	0	0.730457	0	1	up	blue	1	0	0
414	1	63	1	none	1.5	1.5111	red	1	right	right	GLO	left	close	0	intact	none	none	0	0	1.17938	0	1	down	red	1	0	0
414	1	64	1	none	1.5	1.50796	red	0	down	down	GLO	right	far	0	intact	none	none	0	0	0.748463	0	1	down	red	1	0	0
414	1	65	1	none	1.5	1.51091	yellow	1	up	up	GLO	left	far	0	intact	none	none	0	0	1.01557	0	1	left	yellow	1	0	0
414	1	66	1	none	1.5	1.51072	red	0	down	down	GLO	right	close	0	intact	none	none	0	0	0.748122	0	1	down	red	1	0	0
414	1	67	1	none	1.5	1.51291	blue	0	up	up	GLO	right	close	0	intact	none	none	0	0	0.964519	0	1	up	blue	1	0	0
414	1	68	1	none	1.5	1.51092	red	0	down	down	GLO	right	close	0	intact	none	none	0	0	0.898455	0	1	down	red	1	0	0
414	1	69	1	none	1.5	1.51215	yellow	1	down	down	GLO	left	far	0	intact	none	none	0	0	0.963699	0	1	left	yellow	1	0	0
414	1	70	1	none	1.5	1.5105	green	1	down	down	GLO	left	close	0	intact	none	none	0	0	0.673364	0	1	right	green	1	0	0
414	1	71	1	none	1.5	1.51012	green	0	right	right	GLO	right	close	0	intact	none	none	0	0	0.557703	0	1	right	green	1	0	0
414	1	72	1	none	1.5	1.51229	blue	0	up	up	GLO	right	far	0	intact	none	none	0	0	0.664297	0	1	up	blue	1	0	0
414	1	73	1	none	1.5	1.50937	red	0	down	down	GLO	right	close	0	intact	none	none	0	0	1.72532	0	1	down	red	1	0	0
414	1	74	1	none	1.5	1.51196	yellow	1	right	right	GLO	right	far	0	intact	none	none	0	0	0.604861	0	1	left	yellow	1	0	0
414	1	75	1	none	1.5	1.51244	yellow	1	right	right	GLO	left	far	0	intact	none	none	0	0	0.648069	0	1	left	yellow	1	0	0
414	1	76	1	none	1.5	1.51334	red	1	left	left	GLO	left	far	0	intact	none	none	0	0	1.03048	0	1	down	red	1	0	0
414	1	77	1	none	1.5	1.51151	red	1	up	up	GLO	right	far	0	intact	none	none	0	0	1.84127	0	1	down	red	1	0	0
414	1	78	1	none	1.5	1.5117	yellow	0	left	left	GLO	left	far	0	intact	none	none	0	0	1.22547	0	1	left	yellow	1	0	0
414	1	79	1	none	1.5	1.51179	green	0	right	right	GLO	right	close	0	intact	none	none	0	0	0.598855	0	1	right	green	1	0	0
414	1	80	1	none	1.5	1.51045	yellow	1	right	right	GLO	right	far	0	intact	none	none	0	0	0.649266	0	1	left	yellow	1	0	0
414	1	81	1	none	1.5	1.51159	red	1	left	left	GLO	right	far	0	intact	none	none	0	0	1.08244	0	1	down	red	1	0	0
414	1	82	1	none	1.5	1.5114	green	1	down	down	GLO	right	close	0	intact	none	none	0	0	0.831072	0	1	right	green	1	0	0
414	1	83	1	none	1.5	1.51365	red	0	down	down	GLO	left	far	0	intact	none	none	0	0	1.18184	0	1	down	red	1	0	0
414	1	84	1	none	1.5	1.50958	red	1	up	up	GLO	right	close	0	intact	none	none	0	0	0.798122	0	1	down	red	1	0	0
414	1	85	1	none	1.5	1.5125	yellow	0	left	left	GLO	left	far	0	intact	none	none	0	0	0.782145	0	1	left	yellow	1	0	0
414	1	86	1	none	1.5	1.51108	yellow	0	left	left	GLO	left	far	0	intact	none	none	0	0	0.782231	0	1	left	yellow	1	0	0
414	1	87	1	none	1.5	1.50984	yellow	0	left	left	GLO	left	close	0	intact	none	none	0	0	0.981063	0	1	left	yellow	1	0	0
414	1	88	1	none	1.5	1.50918	blue	0	up	up	GLO	right	far	0	intact	none	none	0	0	0.765134	0	1	up	blue	1	0	0
414	1	89	1	none	1.5	1.51117	yellow	1	right	right	GLO	right	close	0	intact	none	none	0	0	0.714547	0	1	left	yellow	1	0	0
414	1	90	1	none	1.5	1.5111	green	1	up	up	GLO	right	far	0	intact	none	none	0	0	0.780309	0	1	right	green	1	0	0
414	1	91	1	none	1.5	NaN	green	1	down	down	GLO	none	far	0	intact	none	none	0	0	NaN	NaN	NaN	none	none	NaN	0	0
414	1	92	1	none	1.5	NaN	green	0	right	right	GLO	none	far	0	intact	none	none	0	0	NaN	NaN	NaN	none	none	NaN	0	0
414	1	93	1	none	1.5	NaN	yellow	1	up	up	GLO	none	far	0	intact	none	none	0	0	NaN	NaN	NaN	none	none	NaN	0	0
414	1	94	1	none	1.5	NaN	yellow	0	left	left	GLO	none	close	0	intact	none	none	0	0	NaN	NaN	NaN	none	none	NaN	0	0
414	1	95	1	none	1.5	NaN	yellow	1	right	right	GLO	none	close	0	intact	none	none	0	0	NaN	NaN	NaN	none	none	NaN	0	0
414	1	96	1	none	1.5	NaN	yellow	1	down	down	GLO	none	close	0	intact	none	none	0	0	NaN	NaN	NaN	none	none	NaN	0	0
414	1	97	1	none	1.5	NaN	yellow	1	up	up	GLO	none	close	0	intact	none	none	0	0	NaN	NaN	NaN	none	none	NaN	0	0
414	1	98	1	none	1.5	NaN	yellow	0	left	left	GLO	none	far	0	intact	none	none	0	0	NaN	NaN	NaN	none	none	NaN	0	0
414	1	99	1	none	1.5	NaN	red	0	down	down	GLO	none	close	0	intact	none	none	0	0	NaN	NaN	NaN	none	none	NaN	0	0
414	1	100	1	none	1.5	NaN	red	1	up	up	GLO	none	far	0	intact	none	none	0	0	NaN	NaN	NaN	none	none	NaN	0	0
414	1	101	1	none	1.5	NaN	yellow	1	up	up	GLO	none	far	0	intact	none	none	0	0	NaN	NaN	NaN	none	none	NaN	0	0
414	1	102	1	none	1.5	NaN	blue	1	right	right	GLO	none	far	0	intact	none	none	0	0	NaN	NaN	NaN	none	none	NaN	0	0
414	1	103	1	none	1.5	NaN	red	1	left	left	GLO	none	close	0	intact	none	none	0	0	NaN	NaN	NaN	none	none	NaN	0	0
414	1	104	1	none	1.5	NaN	blue	0	up	up	GLO	none	close	0	intact	none	none	0	0	NaN	NaN	NaN	none	none	NaN	0	0
414	1	105	1	none	1.5	NaN	yellow	1	down	down	GLO	none	close	0	intact	none	none	0	0	NaN	NaN	NaN	none	none	NaN	0	0
414	1	106	1	none	1.5	NaN	yellow	1	right	right	GLO	none	close	0	intact	none	none	0	0	NaN	NaN	NaN	none	none	NaN	0	0
414	1	107	1	none	1.5	NaN	blue	1	down	down	GLO	none	far	0	intact	none	none	0	0	NaN	NaN	NaN	none	none	NaN	0	0
414	1	108	1	none	1.5	NaN	yellow	1	up	up	GLO	none	far	0	intact	none	none	0	0	NaN	NaN	NaN	none	none	NaN	0	0
414	1	109	1	none	1.5	NaN	blue	1	down	down	GLO	none	far	0	intact	none	none	0	0	NaN	NaN	NaN	none	none	NaN	0	0
414	1	110	1	none	1.5	NaN	red	1	up	up	GLO	none	far	0	intact	none	none	0	0	NaN	NaN	NaN	none	none	NaN	0	0
414	1	111	1	none	1.5	NaN	red	0	down	down	GLO	none	far	0	intact	none	none	0	0	NaN	NaN	NaN	none	none	NaN	0	0
414	1	112	1	none	1.5	NaN	green	0	right	right	GLO	none	far	0	intact	none	none	0	0	NaN	NaN	NaN	none	none	NaN	0	0
414	1	113	1	none	1.5	NaN	blue	1	left	left	GLO	none	close	0	intact	none	none	0	0	NaN	NaN	NaN	none	none	NaN	0	0
414	1	114	1	none	1.5	NaN	yellow	1	right	right	GLO	none	close	0	intact	none	none	0	0	NaN	NaN	NaN	none	none	NaN	0	0
414	1	115	1	none	1.5	NaN	green	0	right	right	GLO	none	far	0	intact	none	none	0	0	NaN	NaN	NaN	none	none	NaN	0	0
414	1	116	1	none	1.5	NaN	red	0	down	down	GLO	none	far	0	intact	none	none	0	0	NaN	NaN	NaN	none	none	NaN	0	0
414	1	117	1	none	1.5	NaN	blue	1	left	left	GLO	none	close	0	intact	none	none	0	0	NaN	NaN	NaN	none	none	NaN	0	0
414	1	118	1	none	1.5	NaN	red	1	up	up	GLO	none	far	0	intact	none	none	0	0	NaN	NaN	NaN	none	none	NaN	0	0
414	1	119	1	none	1.5	NaN	yellow	1	up	up	GLO	none	far	0	intact	none	none	0	0	NaN	NaN	NaN	none	none	NaN	0	0
414	1	120	1	none	1.5	NaN	blue	0	up	up	GLO	none	close	0	intact	none	none	0	0	NaN	NaN	NaN	none	none	NaN	0	0
414	1	121	1	none	1.5	NaN	green	0	right	right	GLO	none	close	0	intact	none	none	0	0	NaN	NaN	NaN	none	none	NaN	0	0
414	1	122	1	none	1.5	NaN	yellow	0	left	left	GLO	none	close	0	intact	none	none	0	0	NaN	NaN	NaN	none	none	NaN	0	0
414	1	123	1	none	1.5	NaN	red	0	down	down	GLO	none	close	0	intact	none	none	0	0	NaN	NaN	NaN	none	none	NaN	0	0
414	1	124	1	none	1.5	NaN	green	0	right	right	GLO	none	close	0	intact	none	none	0	0	NaN	NaN	NaN	none	none	NaN	0	0
414	1	125	1	none	1.5	NaN	yellow	1	right	right	GLO	none	close	0	intact	none	none	0	0	NaN	NaN	NaN	none	none	NaN	0	0
414	1	126	1	none	1.5	NaN	red	1	up	up	GLO	none	far	0	intact	none	none	0	0	NaN	NaN	NaN	none	none	NaN	0	0
414	1	127	1	none	1.5	NaN	green	0	right	right	GLO	none	far	0	intact	none	none	0	0	NaN	NaN	NaN	none	none	NaN	0	0
414	1	128	1	none	1.5	NaN	red	1	up	up	GLO	none	far	0	intact	none	none	0	0	NaN	NaN	NaN	none	none	NaN	0	0
414	1	129	1	none	1.5	NaN	red	1	up	up	GLO	none	close	0	intact	none	none	0	0	NaN	NaN	NaN	none	none	NaN	0	0
414	1	130	1	none	1.5	NaN	blue	0	up	up	GLO	none	far	0	intact	none	none	0	0	NaN	NaN	NaN	none	none	NaN	0	0
414	1	131	1	none	1.5	NaN	yellow	1	right	right	GLO	none	far	0	intact	none	none	0	0	NaN	NaN	NaN	none	none	NaN	0	0
414	1	132	1	none	1.5	NaN	blue	0	up	up	GLO	none	far	0	intact	none	none	0	0	NaN	NaN	NaN	none	none	NaN	0	0
414	1	133	1	none	1.5	NaN	red	0	down	down	GLO	none	far	0	intact	none	none	0	0	NaN	NaN	NaN	none	none	NaN	0	0
414	1	134	1	none	1.5	NaN	green	0	right	right	GLO	none	far	0	intact	none	none	0	0	NaN	NaN	NaN	none	none	NaN	0	0
414	1	135	1	none	1.5	NaN	blue	1	left	left	GLO	none	close	0	intact	none	none	0	0	NaN	NaN	NaN	none	none	NaN	0	0
414	1	136	1	none	1.5	NaN	yellow	1	right	right	GLO	none	close	0	intact	none	none	0	0	NaN	NaN	NaN	none	none	NaN	0	0
414	1	137	1	none	1.5	NaN	blue	0	up	up	GLO	none	close	0	intact	none	none	0	0	NaN	NaN	NaN	none	none	NaN	0	0
414	1	138	1	none	1.5	NaN	green	0	right	right	GLO	none	close	0	intact	none	none	0	0	NaN	NaN	NaN	none	none	NaN	0	0
414	1	139	1	none	1.5	NaN	blue	0	up	up	GLO	none	far	0	intact	none	none	0	0	NaN	NaN	NaN	none	none	NaN	0	0
414	1	140	1	none	1.5	NaN	blue	0	up	up	GLO	none	close	0	intact	none	none	0	0	NaN	NaN	NaN	none	none	NaN	0	0
414	1	141	1	none	1.5	NaN	green	0	right	right	GLO	none	far	0	intact	none	none	0	0	NaN	NaN	NaN	none	none	NaN	0	0
414	1	142	1	none	1.5	NaN	green	0	right	right	GLO	none	far	0	intact	none	none	0	0	NaN	NaN	NaN	none	none	NaN	0	0
414	1	143	1	none	1.5	NaN	yellow	1	down	down	GLO	none	close	0	intact	none	none	0	0	NaN	NaN	NaN	none	none	NaN	0	0
414	1	144	1	none	1.5	NaN	yellow	1	down	down	GLO	none	close	0	intact	none	none	0	0	NaN	NaN	NaN	none	none	NaN	0	0
414	1	145	1	none	1.5	NaN	green	1	down	down	GLO	none	far	0	intact	none	none	0	0	NaN	NaN	NaN	none	none	NaN	0	0
414	1	146	1	none	1.5	NaN	blue	0	up	up	GLO	none	close	0	intact	none	none	0	0	NaN	NaN	NaN	none	none	NaN	0	0
414	1	147	1	none	1.5	NaN	green	1	up	up	GLO	none	close	0	intact	none	none	0	0	NaN	NaN	NaN	none	none	NaN	0	0
414	1	148	1	none	1.5	NaN	green	0	right	right	GLO	none	close	0	intact	none	none	0	0	NaN	NaN	NaN	none	none	NaN	0	0
414	1	149	1	none	1.5	NaN	blue	0	up	up	GLO	none	far	0	intact	none	none	0	0	NaN	NaN	NaN	none	none	NaN	0	0
414	1	150	1	none	1.5	NaN	blue	0	up	up	GLO	none	far	0	intact	none	none	0	0	NaN	NaN	NaN	none	none	NaN	0	0
414	1	151	1	none	1.5	NaN	yellow	1	down	down	GLO	none	far	0	intact	none	none	0	0	NaN	NaN	NaN	none	none	NaN	0	0
414	1	152	1	none	1.5	NaN	yellow	0	left	left	GLO	none	close	0	intact	none	none	0	0	NaN	NaN	NaN	none	none	NaN	0	0
414	1	153	1	none	1.5	NaN	blue	1	left	left	GLO	none	close	0	intact	none	none	0	0	NaN	NaN	NaN	none	none	NaN	0	0
414	1	154	1	none	1.5	NaN	yellow	0	left	left	GLO	none	far	0	intact	none	none	0	0	NaN	NaN	NaN	none	none	NaN	0	0
414	1	155	1	none	1.5	NaN	blue	1	left	left	GLO	none	close	0	intact	none	none	0	0	NaN	NaN	NaN	none	none	NaN	0	0
414	1	156	1	none	1.5	NaN	red	0	down	down	GLO	none	close	0	intact	none	none	0	0	NaN	NaN	NaN	none	none	NaN	0	0
414	1	157	1	none	1.5	NaN	yellow	0	left	left	GLO	none	close	0	intact	none	none	0	0	NaN	NaN	NaN	none	none	NaN	0	0
414	1	158	1	none	1.5	NaN	green	0	right	right	GLO	none	far	0	intact	none	none	0	0	NaN	NaN	NaN	none	none	NaN	0	0
414	1	159	1	none	1.5	NaN	blue	1	left	left	GLO	none	far	0	intact	none	none	0	0	NaN	NaN	NaN	none	none	NaN	0	0
414	1	160	1	none	1.5	NaN	green	1	left	left	GLO	none	close	0	intact	none	none	0	0	NaN	NaN	NaN	none	none	NaN	0	0
414	1	161	1	none	1.5	NaN	red	1	right	right	GLO	none	far	0	intact	none	none	0	0	NaN	NaN	NaN	none	none	NaN	0	0
414	1	162	1	none	1.5	NaN	yellow	1	right	right	GLO	none	close	0	intact	none	none	0	0	NaN	NaN	NaN	none	none	NaN	0	0
414	1	163	1	none	1.5	NaN	red	0	down	down	GLO	none	far	0	intact	none	none	0	0	NaN	NaN	NaN	none	none	NaN	0	0
414	1	164	1	none	1.5	NaN	blue	1	right	right	GLO	none	close	0	intact	none	none	0	0	NaN	NaN	NaN	none	none	NaN	0	0
414	1	165	1	none	1.5	NaN	blue	1	left	left	GLO	none	close	0	intact	none	none	0	0	NaN	NaN	NaN	none	none	NaN	0	0
414	1	166	1	none	1.5	NaN	yellow	1	up	up	GLO	none	far	0	intact	none	none	0	0	NaN	NaN	NaN	none	none	NaN	0	0
414	1	167	1	none	1.5	NaN	blue	1	right	right	GLO	none	close	0	intact	none	none	0	0	NaN	NaN	NaN	none	none	NaN	0	0
414	1	168	1	none	1.5	NaN	green	1	left	left	GLO	none	far	0	intact	none	none	0	0	NaN	NaN	NaN	none	none	NaN	0	0
414	1	169	1	none	1.5	NaN	yellow	0	left	left	GLO	none	far	0	intact	none	none	0	0	NaN	NaN	NaN	none	none	NaN	0	0
414	1	170	1	none	1.5	NaN	green	1	up	up	GLO	none	close	0	intact	none	none	0	0	NaN	NaN	NaN	none	none	NaN	0	0
414	1	171	1	none	1.5	NaN	red	0	down	down	GLO	none	close	0	intact	none	none	0	0	NaN	NaN	NaN	none	none	NaN	0	0
414	1	172	1	none	1.5	NaN	red	1	right	right	GLO	none	far	0	intact	none	none	0	0	NaN	NaN	NaN	none	none	NaN	0	0
414	1	173	1	none	1.5	NaN	green	0	right	right	GLO	none	close	0	intact	none	none	0	0	NaN	NaN	NaN	none	none	NaN	0	0
414	1	174	1	none	1.5	NaN	blue	1	down	down	GLO	none	close	0	intact	none	none	0	0	NaN	NaN	NaN	none	none	NaN	0	0
414	1	175	1	none	1.5	NaN	yellow	0	left	left	GLO	none	close	0	intact	none	none	0	0	NaN	NaN	NaN	none	none	NaN	0	0
414	1	176	1	none	1.5	NaN	blue	1	right	right	GLO	none	close	0	intact	none	none	0	0	NaN	NaN	NaN	none	none	NaN	0	0
414	1	177	1	none	1.5	NaN	blue	1	down	down	GLO	none	close	0	intact	none	none	0	0	NaN	NaN	NaN	none	none	NaN	0	0
414	1	178	1	none	1.5	NaN	yellow	0	left	left	GLO	none	far	0	intact	none	none	0	0	NaN	NaN	NaN	none	none	NaN	0	0
414	1	179	1	none	1.5	NaN	green	1	up	up	GLO	none	far	0	intact	none	none	0	0	NaN	NaN	NaN	none	none	NaN	0	0
414	1	180	1	none	1.5	NaN	yellow	0	left	left	GLO	none	close	0	intact	none	none	0	0	NaN	NaN	NaN	none	none	NaN	0	0
414	1	181	1	none	1.5	NaN	red	1	left	left	GLO	none	close	0	intact	none	none	0	0	NaN	NaN	NaN	none	none	NaN	0	0
414	1	182	1	none	1.5	NaN	blue	0	up	up	GLO	none	close	0	intact	none	none	0	0	NaN	NaN	NaN	none	none	NaN	0	0
414	1	183	1	none	1.5	NaN	yellow	0	left	left	GLO	none	close	0	intact	none	none	0	0	NaN	NaN	NaN	none	none	NaN	0	0
414	1	184	1	none	1.5	NaN	green	0	right	right	GLO	none	close	0	intact	none	none	0	0	NaN	NaN	NaN	none	none	NaN	0	0
414	1	185	1	none	1.5	NaN	blue	1	right	right	GLO	none	close	0	intact	none	none	0	0	NaN	NaN	NaN	none	none	NaN	0	0
414	1	186	1	none	1.5	NaN	red	0	down	down	GLO	none	far	0	intact	none	none	0	0	NaN	NaN	NaN	none	none	NaN	0	0
414	1	187	1	none	1.5	NaN	blue	1	left	left	GLO	none	far	0	intact	none	none	0	0	NaN	NaN	NaN	none	none	NaN	0	0
414	1	188	1	none	1.5	NaN	yellow	1	right	right	GLO	none	close	0	intact	none	none	0	0	NaN	NaN	NaN	none	none	NaN	0	0
414	1	189	1	none	1.5	NaN	blue	0	up	up	GLO	none	close	0	intact	none	none	0	0	NaN	NaN	NaN	none	none	NaN	0	0
414	1	190	1	none	1.5	NaN	blue	0	up	up	GLO	none	far	0	intact	none	none	0	0	NaN	NaN	NaN	none	none	NaN	0	0
414	1	191	1	none	1.5	NaN	green	1	left	left	GLO	none	close	0	intact	none	none	0	0	NaN	NaN	NaN	none	none	NaN	0	0
414	1	192	1	none	1.5	NaN	red	1	right	right	GLO	none	close	0	intact	none	none	0	0	NaN	NaN	NaN	none	none	NaN	0	0
414	1	193	1	none	1.5	NaN	blue	1	left	left	GLO	none	close	0	intact	none	none	0	0	NaN	NaN	NaN	none	none	NaN	0	0
414	1	194	1	none	1.5	NaN	red	0	down	down	GLO	none	far	0	intact	none	none	0	0	NaN	NaN	NaN	none	none	NaN	0	0
414	1	195	1	none	1.5	NaN	red	1	left	left	GLO	none	close	0	intact	none	none	0	0	NaN	NaN	NaN	none	none	NaN	0	0
414	1	196	1	none	1.5	NaN	blue	0	up	up	GLO	none	close	0	intact	none	none	0	0	NaN	NaN	NaN	none	none	NaN	0	0
414	1	197	1	none	1.5	NaN	blue	1	down	down	GLO	none	far	0	intact	none	none	0	0	NaN	NaN	NaN	none	none	NaN	0	0
414	1	198	1	none	1.5	NaN	blue	0	up	up	GLO	none	close	0	intact	none	none	0	0	NaN	NaN	NaN	none	none	NaN	0	0
414	1	199	1	none	1.5	NaN	green	1	up	up	GLO	none	far	0	intact	none	none	0	0	NaN	NaN	NaN	none	none	NaN	0	0
414	1	200	1	none	1.5	NaN	red	0	down	down	GLO	none	close	0	intact	none	none	0	0	NaN	NaN	NaN	none	none	NaN	0	0
414	1	201	1	none	1.5	NaN	green	0	right	right	GLO	none	far	0	intact	none	none	0	0	NaN	NaN	NaN	none	none	NaN	0	0
414	1	202	1	none	1.5	NaN	red	0	down	down	GLO	none	far	0	intact	none	none	0	0	NaN	NaN	NaN	none	none	NaN	0	0
414	1	203	1	none	1.5	NaN	blue	0	up	up	GLO	none	far	0	intact	none	none	0	0	NaN	NaN	NaN	none	none	NaN	0	0
414	1	204	1	none	1.5	NaN	yellow	1	up	up	GLO	none	far	0	intact	none	none	0	0	NaN	NaN	NaN	none	none	NaN	0	0
414	1	205	1	none	1.5	NaN	green	0	right	right	GLO	none	close	0	intact	none	none	0	0	NaN	NaN	NaN	none	none	NaN	0	0
414	1	206	1	none	1.5	NaN	green	1	down	down	GLO	none	far	0	intact	none	none	0	0	NaN	NaN	NaN	none	none	NaN	0	0
414	1	207	1	none	1.5	NaN	red	0	down	down	GLO	none	close	0	intact	none	none	0	0	NaN	NaN	NaN	none	none	NaN	0	0
414	1	208	1	none	1.5	NaN	blue	0	up	up	GLO	none	far	0	intact	none	none	0	0	NaN	NaN	NaN	none	none	NaN	0	0
414	1	209	1	none	1.5	NaN	blue	0	up	up	GLO	none	close	0	intact	none	none	0	0	NaN	NaN	NaN	none	none	NaN	0	0
414	1	210	1	none	1.5	NaN	blue	0	up	up	GLO	none	close	0	intact	none	none	0	0	NaN	NaN	NaN	none	none	NaN	0	0
414	1	211	1	none	1.5	NaN	blue	0	up	up	GLO	none	far	0	intact	none	none	0	0	NaN	NaN	NaN	none	none	NaN	0	0
414	1	212	1	none	1.5	NaN	yellow	0	left	left	GLO	none	close	0	intact	none	none	0	0	NaN	NaN	NaN	none	none	NaN	0	0
414	1	213	1	none	1.5	NaN	green	1	left	left	GLO	none	close	0	intact	none	none	0	0	NaN	NaN	NaN	none	none	NaN	0	0
414	1	214	1	none	1.5	NaN	blue	0	up	up	GLO	none	close	0	intact	none	none	0	0	NaN	NaN	NaN	none	none	NaN	0	0
414	1	215	1	none	1.5	NaN	green	1	up	up	GLO	none	close	0	intact	none	none	0	0	NaN	NaN	NaN	none	none	NaN	0	0
414	1	216	1	none	1.5	NaN	blue	1	down	down	GLO	none	far	0	intact	none	none	0	0	NaN	NaN	NaN	none	none	NaN	0	0
414	1	217	1	none	1.5	NaN	yellow	0	left	left	GLO	none	close	0	intact	none	none	0	0	NaN	NaN	NaN	none	none	NaN	0	0
414	1	218	1	none	1.5	NaN	yellow	1	down	down	GLO	none	close	0	intact	none	none	0	0	NaN	NaN	NaN	none	none	NaN	0	0
414	1	219	1	none	1.5	NaN	yellow	1	down	down	GLO	none	far	0	intact	none	none	0	0	NaN	NaN	NaN	none	none	NaN	0	0
414	1	220	1	none	1.5	NaN	green	0	right	right	GLO	none	close	0	intact	none	none	0	0	NaN	NaN	NaN	none	none	NaN	0	0
414	1	221	1	none	1.5	NaN	red	1	left	left	GLO	none	far	0	intact	none	none	0	0	NaN	NaN	NaN	none	none	NaN	0	0
414	1	222	1	none	1.5	NaN	yellow	1	right	right	GLO	none	close	0	intact	none	none	0	0	NaN	NaN	NaN	none	none	NaN	0	0
414	1	223	1	none	1.5	NaN	blue	1	down	down	GLO	none	close	0	intact	none	none	0	0	NaN	NaN	NaN	none	none	NaN	0	0
414	1	224	1	none	1.5	NaN	yellow	1	up	up	GLO	none	far	0	intact	none	none	0	0	NaN	NaN	NaN	none	none	NaN	0	0
414	1	225	1	none	1.5	NaN	red	0	down	down	GLO	none	close	0	intact	none	none	0	0	NaN	NaN	NaN	none	none	NaN	0	0
414	1	226	1	none	1.5	NaN	yellow	0	left	left	GLO	none	far	0	intact	none	none	0	0	NaN	NaN	NaN	none	none	NaN	0	0
414	1	227	1	none	1.5	NaN	red	1	left	left	GLO	none	far	0	intact	none	none	0	0	NaN	NaN	NaN	none	none	NaN	0	0
414	1	228	1	none	1.5	NaN	yellow	1	down	down	GLO	none	far	0	intact	none	none	0	0	NaN	NaN	NaN	none	none	NaN	0	0
414	1	229	1	none	1.5	NaN	blue	1	down	down	GLO	none	close	0	intact	none	none	0	0	NaN	NaN	NaN	none	none	NaN	0	0
414	1	230	1	none	1.5	NaN	yellow	0	left	left	GLO	none	far	0	intact	none	none	0	0	NaN	NaN	NaN	none	none	NaN	0	0
414	1	231	1	none	1.5	NaN	yellow	1	down	down	GLO	none	far	0	intact	none	none	0	0	NaN	NaN	NaN	none	none	NaN	0	0
414	1	232	1	none	1.5	NaN	green	1	down	down	GLO	none	close	0	intact	none	none	0	0	NaN	NaN	NaN	none	none	NaN	0	0
414	1	233	1	none	1.5	NaN	red	1	right	right	GLO	none	close	0	intact	none	none	0	0	NaN	NaN	NaN	none	none	NaN	0	0
414	1	234	1	none	1.5	NaN	yellow	1	right	right	GLO	none	far	0	intact	none	none	0	0	NaN	NaN	NaN	none	none	NaN	0	0
414	1	235	1	none	1.5	NaN	blue	1	right	right	GLO	none	close	0	intact	none	none	0	0	NaN	NaN	NaN	none	none	NaN	0	0
414	1	236	1	none	1.5	NaN	blue	1	left	left	GLO	none	close	0	intact	none	none	0	0	NaN	NaN	NaN	none	none	NaN	0	0
414	1	237	1	none	1.5	NaN	blue	1	right	right	GLO	none	far	0	intact	none	none	0	0	NaN	NaN	NaN	none	none	NaN	0	0
414	1	238	1	none	1.5	NaN	green	0	right	right	GLO	none	close	0	intact	none	none	0	0	NaN	NaN	NaN	none	none	NaN	0	0
414	1	239	1	none	1.5	NaN	red	1	left	left	GLO	none	far	0	intact	none	none	0	0	NaN	NaN	NaN	none	none	NaN	0	0
414	1	240	1	none	1.5	NaN	blue	1	right	right	GLO	none	far	0	intact	none	none	0	0	NaN	NaN	NaN	none	none	NaN	0	0
414	1	241	1	none	1.5	NaN	green	1	left	left	GLO	none	far	0	intact	none	none	0	0	NaN	NaN	NaN	none	none	NaN	0	0
414	1	242	1	none	1.5	NaN	red	1	right	right	GLO	none	far	0	intact	none	none	0	0	NaN	NaN	NaN	none	none	NaN	0	0
414	1	243	1	none	1.5	NaN	blue	0	up	up	GLO	none	far	0	intact	none	none	0	0	NaN	NaN	NaN	none	none	NaN	0	0
414	1	244	1	none	1.5	NaN	yellow	0	left	left	GLO	none	close	0	intact	none	none	0	0	NaN	NaN	NaN	none	none	NaN	0	0
414	1	245	1	none	1.5	NaN	blue	0	up	up	GLO	none	far	0	intact	none	none	0	0	NaN	NaN	NaN	none	none	NaN	0	0
414	1	246	1	none	1.5	NaN	blue	0	up	up	GLO	none	close	0	intact	none	none	0	0	NaN	NaN	NaN	none	none	NaN	0	0
414	1	247	1	none	1.5	NaN	red	0	down	down	GLO	none	far	0	intact	none	none	0	0	NaN	NaN	NaN	none	none	NaN	0	0
414	1	248	1	none	1.5	NaN	green	0	right	right	GLO	none	far	0	intact	none	none	0	0	NaN	NaN	NaN	none	none	NaN	0	0
414	1	249	1	none	1.5	NaN	yellow	1	right	right	GLO	none	far	0	intact	none	none	0	0	NaN	NaN	NaN	none	none	NaN	0	0
414	1	250	1	none	1.5	NaN	red	0	down	down	GLO	none	close	0	intact	none	none	0	0	NaN	NaN	NaN	none	none	NaN	0	0
414	1	251	1	none	1.5	NaN	red	0	down	down	GLO	none	close	0	intact	none	none	0	0	NaN	NaN	NaN	none	none	NaN	0	0
414	1	252	1	none	1.5	NaN	red	1	left	left	GLO	none	close	0	intact	none	none	0	0	NaN	NaN	NaN	none	none	NaN	0	0
414	1	253	1	none	1.5	NaN	green	1	left	left	GLO	none	far	0	intact	none	none	0	0	NaN	NaN	NaN	none	none	NaN	0	0
414	1	254	1	none	1.5	NaN	red	0	down	down	GLO	none	far	0	intact	none	none	0	0	NaN	NaN	NaN	none	none	NaN	0	0
414	1	255	1	none	1.5	NaN	blue	1	down	down	GLO	none	close	0	intact	none	none	0	0	NaN	NaN	NaN	none	none	NaN	0	0
414	1	256	1	none	1.5	NaN	red	1	up	up	GLO	none	close	0	intact	none	none	0	0	NaN	NaN	NaN	none	none	NaN	0	0
414	1	257	1	none	1.5	NaN	green	0	right	right	GLO	none	far	0	intact	none	none	0	0	NaN	NaN	NaN	none	none	NaN	0	0
414	1	258	1	none	1.5	NaN	blue	0	up	up	GLO	none	far	0	intact	none	none	0	0	NaN	NaN	NaN	none	none	NaN	0	0
414	1	259	1	none	1.5	NaN	green	0	right	right	GLO	none	far	0	intact	none	none	0	0	NaN	NaN	NaN	none	none	NaN	0	0
414	1	260	1	none	1.5	NaN	red	1	left	left	GLO	none	close	0	intact	none	none	0	0	NaN	NaN	NaN	none	none	NaN	0	0
414	1	261	1	none	1.5	NaN	blue	0	up	up	GLO	none	far	0	intact	none	none	0	0	NaN	NaN	NaN	none	none	NaN	0	0
414	1	262	1	none	1.5	NaN	yellow	0	left	left	GLO	none	close	0	intact	none	none	0	0	NaN	NaN	NaN	none	none	NaN	0	0
414	1	263	1	none	1.5	NaN	red	1	left	left	GLO	none	close	0	intact	none	none	0	0	NaN	NaN	NaN	none	none	NaN	0	0
414	1	264	1	none	1.5	NaN	green	0	right	right	GLO	none	far	0	intact	none	none	0	0	NaN	NaN	NaN	none	none	NaN	0	0
414	1	265	1	none	1.5	NaN	blue	0	up	up	GLO	none	close	0	intact	none	none	0	0	NaN	NaN	NaN	none	none	NaN	0	0
414	1	266	1	none	1.5	NaN	green	1	down	down	GLO	none	close	0	intact	none	none	0	0	NaN	NaN	NaN	none	none	NaN	0	0
414	1	267	1	none	1.5	NaN	red	1	up	up	GLO	none	close	0	intact	none	none	0	0	NaN	NaN	NaN	none	none	NaN	0	0
414	1	268	1	none	1.5	NaN	red	1	left	left	GLO	none	far	0	intact	none	none	0	0	NaN	NaN	NaN	none	none	NaN	0	0
414	1	269	1	none	1.5	NaN	green	1	left	left	GLO	none	far	0	intact	none	none	0	0	NaN	NaN	NaN	none	none	NaN	0	0
414	1	270	1	none	1.5	NaN	yellow	1	right	right	GLO	none	close	0	intact	none	none	0	0	NaN	NaN	NaN	none	none	NaN	0	0
414	1	271	1	none	1.5	NaN	green	1	left	left	GLO	none	close	0	intact	none	none	0	0	NaN	NaN	NaN	none	none	NaN	0	0
414	1	272	1	none	1.5	NaN	green	0	right	right	GLO	none	far	0	intact	none	none	0	0	NaN	NaN	NaN	none	none	NaN	0	0
414	1	273	1	none	1.5	NaN	red	1	left	left	GLO	none	far	0	intact	none	none	0	0	NaN	NaN	NaN	none	none	NaN	0	0
414	1	274	1	none	1.5	NaN	red	1	right	right	GLO	none	far	0	intact	none	none	0	0	NaN	NaN	NaN	none	none	NaN	0	0
414	1	275	1	none	1.5	NaN	red	1	up	up	GLO	none	far	0	intact	none	none	0	0	NaN	NaN	NaN	none	none	NaN	0	0
414	1	276	1	none	1.5	NaN	yellow	0	left	left	GLO	none	close	0	intact	none	none	0	0	NaN	NaN	NaN	none	none	NaN	0	0
414	1	277	1	none	1.5	NaN	red	0	down	down	GLO	none	close	0	intact	none	none	0	0	NaN	NaN	NaN	none	none	NaN	0	0
414	2	1	1	self	0.5	0.515956	red	0	down	down	GLO	left	far	1	intact	intact	a24b6226-d6e8-4655-b874-d79fefacec8c_fps_avg_aud.mp4	0	0	1.21609	0	1	down	red	1	0	0
414	2	2	1	self	0.5	0.509241	yellow	1	down	down	GLO	right	far	1	intact	intact	24d66d05-cb47-4803-b009-da6ae79affa7_fps_avg_aud.mp4	1	199	1.54909	0.890907	2	left	yellow	1	0	0
414	2	3	1	self	0.5	0.515664	blue	1	down	down	GLO	left	far	1	intact	intact	c59b0a3f-09df-4660-a241-ebba5fb01e57_fps_avg_aud.mp4	0	0	1.04815	0	1	up	blue	1	0	0
414	2	4	1	self	0.5	0.512111	green	1	down	down	GLO	left	far	1	intact	intact	ac9d3ec9-e996-4c12-9cee-27057f644981_fps_avg_aud.mp4	0	0	0.690967	0	1	right	green	1	0	0
414	2	5	1	self	0.5	0.513531	red	1	right	right	GLO	right	close	1	intact	intact	March_15_2016_fps_avg_aud.mp4	1	148	1.43215	0.590827	2	down	red	1	0	0
414	2	6	1	self	0.5	0.51417	yellow	1	down	down	GLO	right	close	1	intact	intact	f0c0b40e-f75d-4798-8deb-2b993faeea9f_fps_avg_aud.mp4	1	72	1.53045	0.295893	2	left	yellow	1	0	0
414	2	7	1	self	0.5	0.511623	blue	0	up	up	GLO	left	close	1	intact	intact	bd3765b8-eb64-440a-a4a8-b6804686fcae_fps_avg_aud.mp4	0	0	1.13066	0	1	up	blue	1	0	0
414	2	8	1	self	0.5	0.511654	blue	0	up	up	GLO	right	far	1	intact	intact	d928ad07-fccb-4758-905a-ca2e2f1c06b6_fps_avg_aud.mp4	0	0	0.674213	0	1	up	blue	1	0	0
414	2	9	1	self	0.5	0.511237	blue	0	up	up	GLO	left	close	1	intact	intact	a066c606-67e2-4c5d-b13d-471a21a18633_fps_avg_aud.mp4	1	277	1.24867	1.14921	1	up	blue	1	0	0
414	2	10	1	self	0.5	0.510487	yellow	0	left	left	GLO	left	close	1	intact	intact	cc1b0f3f-4b74-4315-bb6b-f6c5624cbee1(1)_fps_avg_aud.mp4	1	205	0.864609	0.765448	1	left	yellow	1	0	0
414	2	11	1	self	0.5	0.514627	yellow	1	right	right	GLO	left	close	1	intact	intact	f7063dab-b99f-4ced-99a1-d8e067de3ccd_fps_avg_aud.mp4	1	104	0.556377	0.449648	1	left	yellow	1	0	0
414	2	12	1	self	0.5	0.515401	blue	1	down	down	GLO	left	far	1	intact	intact	bde7c25a-0ad2-4261-821f-9cae1d4d4033_fps_avg_aud.mp4	1	106	0.774023	0.450617	1	up	blue	1	0	0
414	2	13	1	self	0.5	0.509441	blue	0	up	up	GLO	left	far	1	intact	intact	cfead01b-2f72-4131-8069-3f2052f352e3_fps_avg_aud.mp4	1	138	0.665442	0.567525	1	up	blue	1	0	0
414	2	14	1	self	0.5	0.513984	blue	0	up	up	GLO	left	far	1	intact	intact	May25_fps_avg_aud.mp4	1	113	0.525758	0.434148	1	up	blue	1	0	0
414	2	15	1	self	0.5	0.510274	red	0	down	down	GLO	right	close	1	intact	intact	Dec21_fps_avg_aud.mp4	0	0	1.01552	0	1	down	red	1	0	0
414	2	16	1	self	0.5	0.512483	green	0	right	right	GLO	right	far	1	intact	intact	6ce71e9b-76db-4300-af8c-23df366c03d0_fps_avg_aud.mp4	1	183	0.800828	0.702843	1	right	green	1	0	0
414	2	17	1	self	0.5	0.510235	yellow	1	up	up	GLO	right	close	1	intact	intact	fd4a95d6-f171-4c0b-8de2-e9ca909c9eff_fps_avg_aud.mp4	1	276	1.14482	1.04714	1	right	green	0	0	0
414	2	18	1	self	1.5	1.51634	green	0	right	right	GLO	right	far	1	intact	intact	8131cc16-56a9-45d8-8dab-20ead5938e0a_fps_avg_aud.mp4	1	84	0.547428	0.433789	1	right	green	1	0	0
414	2	19	1	self	1.5	1.50848	green	0	right	right	GLO	right	close	1	intact	intact	210cd477-4b9d-42a8-810f-6df0d7615942_fps_avg_aud.mp4	1	37	0.555082	0.173844	1	right	green	1	0	0
414	2	20	1	self	1.5	1.51143	green	1	left	left	GLO	right	far	1	intact	intact	5022b285-2c2f-4e4f-824d-5e45be82c1a3_fps_avg_aud.mp4	1	223	0.980606	0.882986	1	right	green	1	0	0
414	2	21	1	self	1.5	1.51452	yellow	1	right	right	GLO	right	far	1	intact	intact	Apr2_fps_avg_aud.mp4	1	165	0.847127	0.633549	1	up	blue	0	0	0
414	2	22	1	self	1.5	1.51269	red	0	down	down	GLO	right	far	1	intact	intact	856001bb-aa8d-41ae-ad3d-fd9ff39c28c0_fps_avg_aud.mp4	1	26	1.14773	0.117944	1	down	red	1	0	0
414	2	23	1	self	1.5	1.51259	yellow	0	left	left	GLO	right	close	1	intact	intact	cb6ef54e-2b4c-4064-8d68-1ca2b2e8a47c_fps_avg_aud.mp4	0	0	0.740799	0	1	left	yellow	1	0	0
414	2	24	1	self	1.5	1.51166	yellow	0	left	left	GLO	left	close	1	intact	intact	Nov1_fps_avg_aud.mp4	1	182	0.897709	0.799276	1	left	yellow	1	0	0
414	2	25	1	self	1.5	1.5112	blue	1	left	left	GLO	left	far	1	intact	intact	17cc3183-9fa6-42da-8814-3bcbf562eceb_fps_avg_aud.mp4	1	154	0.694776	0.603112	1	up	blue	1	0	0
414	2	26	1	self	1.5	1.51055	red	0	down	down	GLO	left	far	1	intact	intact	99e5912a-fa6d-43dc-a1df-f887e6ef8a00_fps_avg_aud.mp4	1	208	1.00905	0.910733	1	down	red	1	0	0
414	2	27	1	self	1.5	1.51538	red	0	down	down	GLO	left	far	1	intact	intact	August1_fps_avg_aud.mp4	1	218	0.966858	0.869587	1	down	red	1	0	0
414	2	28	1	self	1.5	1.51119	red	0	down	down	GLO	left	far	1	intact	intact	b4701d82-e6b3-47a6-bf5c-596818c9d778_fps_avg_aud.mp4	1	317	1.34836	1.24963	1	down	red	1	0	0
414	2	29	1	self	1.5	NaN	blue	0	up	up	GLO	none	close	1	intact	intact	March25_2016_fps_avg_aud.mp4	0	0	NaN	NaN	NaN	none	none	NaN	0	0
414	2	30	1	self	1.5	NaN	blue	1	left	left	GLO	none	far	1	intact	intact	Aug10_fps_avg_aud.mp4	0	0	NaN	NaN	NaN	none	none	NaN	0	0
414	2	31	1	self	1.5	NaN	blue	0	up	up	GLO	none	close	1	intact	intact	58fa2b05-06d6-4325-b14b-27b0a9645ea5_fps_avg_aud.mp4	0	0	NaN	NaN	NaN	none	none	NaN	0	0
414	2	32	1	self	1.5	NaN	red	1	up	up	GLO	none	close	1	intact	intact	1ad967f4-1728-4eb7-88a5-9d6ad488c3b4_fps_avg_aud.mp4	0	0	NaN	NaN	NaN	none	none	NaN	0	0
414	2	33	1	self	1.5	NaN	green	0	right	right	GLO	none	close	1	intact	intact	c3c668bd-3353-4887-b3ff-6d0225f5629c_fps_avg_aud.mp4	0	0	NaN	NaN	NaN	none	none	NaN	0	0
414	2	34	1	self	1.5	NaN	blue	0	up	up	GLO	none	close	1	intact	intact	July_2015_fps_avg_aud.mp4	0	0	NaN	NaN	NaN	none	none	NaN	0	0
414	2	35	1	self	1.5	NaN	blue	1	down	down	GLO	none	far	1	intact	intact	d1495dc6-3264-40ae-807f-007f3ab4bdee_fps_avg_aud.mp4	0	0	NaN	NaN	NaN	none	none	NaN	0	0
414	2	36	1	self	1.5	NaN	yellow	0	left	left	GLO	none	close	1	intact	intact	0096623f-bd93-48df-96f9-85a0a749a586_fps_avg_aud.mp4	0	0	NaN	NaN	NaN	none	none	NaN	0	0
414	2	37	1	self	1.5	NaN	yellow	1	up	up	GLO	none	far	1	intact	intact	Sep24_fps_avg_aud.mp4	0	0	NaN	NaN	NaN	none	none	NaN	0	0
414	2	38	1	self	1.5	NaN	yellow	1	down	down	GLO	none	close	1	intact	intact	8b186ca3-65a3-4740-8611-404063ae0ec7_fps_avg_aud.mp4	0	0	NaN	NaN	NaN	none	none	NaN	0	0
414	2	39	1	self	1.5	NaN	yellow	0	left	left	GLO	none	far	1	intact	intact	October_8_2016_fps_avg_aud.mp4	0	0	NaN	NaN	NaN	none	none	NaN	0	0
414	2	40	1	self	1.5	NaN	red	1	up	up	GLO	none	close	1	intact	intact	July21_fps_avg_aud.mp4	0	0	NaN	NaN	NaN	none	none	NaN	0	0
414	2	41	1	self	1.5	NaN	red	0	down	down	GLO	none	close	1	intact	intact	b8f7a383-ba3e-49db-977d-18cbd8702864_fps_avg_aud.mp4	0	0	NaN	NaN	NaN	none	none	NaN	0	0
414	2	42	1	self	1.5	NaN	red	0	down	down	GLO	none	far	1	intact	intact	16fe28b7-019b-49e7-9b4b-6b9fba85fe3d_fps_avg_aud.mp4	0	0	NaN	NaN	NaN	none	none	NaN	0	0
414	2	43	1	self	1.5	NaN	yellow	0	left	left	GLO	none	close	1	intact	intact	705c0056-c7dd-4090-a27e-8956e33cb4b0_fps_avg_aud.mp4	0	0	NaN	NaN	NaN	none	none	NaN	0	0
414	2	44	1	self	1.5	NaN	red	1	up	up	GLO	none	far	1	intact	intact	5b8d6efa-e1ab-4dc5-b720-51d467e90859_fps_avg_aud.mp4	0	0	NaN	NaN	NaN	none	none	NaN	0	0
414	2	45	1	self	1.5	NaN	yellow	0	left	left	GLO	none	far	1	intact	intact	4d681112-07b2-4265-a7e1-d188bc4f8511_fps_avg_aud.mp4	0	0	NaN	NaN	NaN	none	none	NaN	0	0
414	2	46	1	self	1.5	NaN	red	0	down	down	GLO	none	close	1	intact	intact	Jun21_fps_avg_aud.mp4	0	0	NaN	NaN	NaN	none	none	NaN	0	0
414	2	47	1	self	1.5	NaN	blue	0	up	up	GLO	none	close	1	intact	intact	779aa7ea-420b-4390-a149-5f24d3acfbfd_fps_avg_aud.mp4	0	0	NaN	NaN	NaN	none	none	NaN	0	0
414	2	48	1	self	1.5	NaN	red	1	left	left	GLO	none	far	1	intact	intact	Jun6_fps_avg_aud.mp4	0	0	NaN	NaN	NaN	none	none	NaN	0	0
414	2	49	1	self	1.5	NaN	green	1	down	down	GLO	none	far	1	intact	intact	Sep19_fps_avg_aud.mp4	0	0	NaN	NaN	NaN	none	none	NaN	0	0
414	2	50	1	self	1.5	NaN	green	1	down	down	GLO	none	far	1	intact	intact	7c00c850-e528-473f-895e-ee9be83c7963_fps_avg_aud.mp4	0	0	NaN	NaN	NaN	none	none	NaN	0	0
414	2	51	1	self	1.5	NaN	blue	1	down	down	GLO	none	far	1	intact	intact	Nov10_fps_avg_aud.mp4	0	0	NaN	NaN	NaN	none	none	NaN	0	0
414	2	52	1	self	1.5	NaN	green	1	left	left	GLO	none	far	1	intact	intact	745865b0-d7b3-440f-840d-03f3a3ef51b1_fps_avg_aud.mp4	0	0	NaN	NaN	NaN	none	none	NaN	0	0
414	2	53	1	self	1.5	NaN	yellow	1	right	right	GLO	none	close	1	intact	intact	049f3843-4d05-4200-8b41-7c0b71c68f4c_fps_avg_aud.mp4	0	0	NaN	NaN	NaN	none	none	NaN	0	0
414	2	54	1	self	1.5	NaN	yellow	1	right	right	GLO	none	close	1	intact	intact	Dec30_fps_avg_aud.mp4	0	0	NaN	NaN	NaN	none	none	NaN	0	0
414	2	55	1	self	1.5	NaN	green	1	down	down	GLO	none	far	1	intact	intact	Sep22_fps_avg_aud.mp4	0	0	NaN	NaN	NaN	none	none	NaN	0	0
414	2	56	1	self	1.5	NaN	yellow	0	left	left	GLO	none	far	1	intact	intact	9874ea15-f388-4d7d-ae5d-51013a69fee3_fps_avg_aud.mp4	0	0	NaN	NaN	NaN	none	none	NaN	0	0
414	2	57	1	self	1.5	NaN	green	1	down	down	GLO	none	close	1	intact	intact	02c095ee-b711-4594-b27d-87092fa292bb_fps_avg_aud.mp4	0	0	NaN	NaN	NaN	none	none	NaN	0	0
414	2	58	1	self	1.5	NaN	red	0	down	down	GLO	none	far	1	intact	intact	January_4_2016_fps_avg_aud.mp4	0	0	NaN	NaN	NaN	none	none	NaN	0	0
414	2	59	1	self	1.5	NaN	red	1	up	up	GLO	none	close	1	intact	intact	march_21_2016_fps_avg_aud.mp4	0	0	NaN	NaN	NaN	none	none	NaN	0	0
414	2	60	1	self	1.5	NaN	blue	0	up	up	GLO	none	close	1	intact	intact	Jul10_fps_avg_aud.mp4	0	0	NaN	NaN	NaN	none	none	NaN	0	0
414	2	61	1	self	1.5	NaN	yellow	0	left	left	GLO	none	far	1	intact	intact	May11_fps_avg_aud.mp4	0	0	NaN	NaN	NaN	none	none	NaN	0	0
414	2	62	1	self	1.5	NaN	red	0	down	down	GLO	none	far	1	intact	intact	79c2a399-1c19-4b6a-a7be-ad19cd183d03_fps_avg_aud.mp4	0	0	NaN	NaN	NaN	none	none	NaN	0	0
414	2	63	1	self	1.5	NaN	green	1	down	down	GLO	none	close	1	intact	intact	0676fced-76c5-4cb7-bd2b-7d257e147aad_fps_avg_aud.mp4	0	0	NaN	NaN	NaN	none	none	NaN	0	0
414	2	64	1	self	1.5	NaN	blue	1	right	right	GLO	none	close	1	intact	intact	Jan13_fps_avg_aud.mp4	0	0	NaN	NaN	NaN	none	none	NaN	0	0
414	2	65	1	self	1.5	NaN	blue	1	down	down	GLO	none	far	1	intact	intact	0634b486-cb5f-4c95-88ac-759458166474_fps_avg_aud.mp4	0	0	NaN	NaN	NaN	none	none	NaN	0	0
414	2	66	1	self	1.5	NaN	yellow	1	up	up	GLO	none	far	1	intact	intact	980b240d-9e79-4cca-81da-f6d711752962_fps_avg_aud.mp4	0	0	NaN	NaN	NaN	none	none	NaN	0	0
414	2	67	1	self	1.5	NaN	red	1	up	up	GLO	none	close	1	intact	intact	24481237-3ead-4e6a-9a61-be95f34bf5f2_fps_avg_aud.mp4	0	0	NaN	NaN	NaN	none	none	NaN	0	0
414	2	68	1	self	1.5	NaN	red	0	down	down	GLO	none	far	1	intact	intact	53f27130-5392-4410-b48f-90a712697cfb_fps_avg_aud.mp4	0	0	NaN	NaN	NaN	none	none	NaN	0	0
414	2	69	1	self	1.5	NaN	green	1	up	up	GLO	none	close	1	intact	intact	Jnauary_2016_fps_avg_aud.mp4	0	0	NaN	NaN	NaN	none	none	NaN	0	0
414	2	70	1	self	1.5	NaN	green	0	right	right	GLO	none	far	1	intact	intact	Sep30_fps_avg_aud.mp4	0	0	NaN	NaN	NaN	none	none	NaN	0	0
414	2	71	1	self	1.5	NaN	blue	1	right	right	GLO	none	close	1	intact	intact	e67cff3b-48fd-4045-95c8-a92189606742_fps_avg_aud.mp4	0	0	NaN	NaN	NaN	none	none	NaN	0	0
414	2	72	1	self	1.5	NaN	green	0	right	right	GLO	none	close	1	intact	intact	f9a11fba-d584-4a74-ba4f-e5eb4ac62b73_fps_avg_aud.mp4	0	0	NaN	NaN	NaN	none	none	NaN	0	0
414	2	73	1	self	1.5	NaN	red	1	right	right	GLO	none	close	1	intact	intact	Jan20_fps_avg_aud.mp4	0	0	NaN	NaN	NaN	none	none	NaN	0	0
414	2	74	1	self	1.5	NaN	yellow	0	left	left	GLO	none	far	1	intact	intact	June_2016_(1)_fps_avg_aud.mp4	0	0	NaN	NaN	NaN	none	none	NaN	0	0
414	2	75	1	self	1.5	NaN	green	0	right	right	GLO	none	far	1	intact	intact	Jun24_fps_avg_aud.mp4	0	0	NaN	NaN	NaN	none	none	NaN	0	0
414	2	76	1	self	1.5	NaN	red	0	down	down	GLO	none	close	1	intact	intact	05a4f0ad-5d14-4bd5-8c2b-7db284b369ce_fps_avg_aud.mp4	0	0	NaN	NaN	NaN	none	none	NaN	0	0
414	2	77	1	self	1.5	NaN	blue	1	right	right	GLO	none	close	1	intact	intact	533b0238-357b-409c-8d86-25285970eb98_fps_avg_aud.mp4	0	0	NaN	NaN	NaN	none	none	NaN	0	0
414	2	78	1	self	1.5	NaN	blue	0	up	up	GLO	none	close	1	intact	intact	9747c74d-dde2-4f34-b67e-0e02a9c1a69c_fps_avg_aud.mp4	0	0	NaN	NaN	NaN	none	none	NaN	0	0
414	2	79	1	self	1.5	NaN	yellow	0	left	left	GLO	none	close	1	intact	intact	06fe833b-37ac-4f46-b915-fda1c2b107fe_fps_avg_aud.mp4	0	0	NaN	NaN	NaN	none	none	NaN	0	0
414	2	80	1	self	1.5	NaN	red	1	left	left	GLO	none	close	1	intact	intact	483a899a-71a0-49cf-b2ba-f13374d6b0a8_fps_avg_aud.mp4	0	0	NaN	NaN	NaN	none	none	NaN	0	0
414	2	81	1	self	1.5	NaN	green	0	right	right	GLO	none	close	1	intact	intact	0ee64e11-96b9-4476-a12c-a99a4b58a965_fps_avg_aud.mp4	0	0	NaN	NaN	NaN	none	none	NaN	0	0
414	2	82	1	self	1.5	NaN	yellow	0	left	left	GLO	none	close	1	intact	intact	b23c9ea6-adb6-492c-965f-16af3f7801e9_fps_avg_aud.mp4	0	0	NaN	NaN	NaN	none	none	NaN	0	0
414	2	83	1	self	1.5	NaN	green	0	right	right	GLO	none	far	1	intact	intact	94b03dc1-7d37-4553-b382-cb9494e3b7f1_fps_avg_aud.mp4	0	0	NaN	NaN	NaN	none	none	NaN	0	0
414	2	84	1	self	1.5	NaN	blue	1	left	left	GLO	none	close	1	intact	intact	cad0ae4f-8fd8-463e-9880-f0c1f9462bac_fps_avg_aud.mp4	0	0	NaN	NaN	NaN	none	none	NaN	0	0
414	2	85	1	self	1.5	NaN	blue	1	down	down	GLO	none	far	1	intact	intact	Feb11_fps_avg_aud.mp4	0	0	NaN	NaN	NaN	none	none	NaN	0	0
414	2	86	1	self	1.5	NaN	yellow	0	left	left	GLO	none	close	1	intact	intact	f08bb9b7-0409-482c-9084-de15481ab2b3_fps_avg_aud.mp4	0	0	NaN	NaN	NaN	none	none	NaN	0	0
414	2	87	1	self	1.5	NaN	red	0	down	down	GLO	none	close	1	intact	intact	2d9948f5-94d5-495f-a74e-80174a3c508a_fps_avg_aud.mp4	0	0	NaN	NaN	NaN	none	none	NaN	0	0
414	2	88	1	self	1.5	NaN	green	1	up	up	GLO	none	far	1	intact	intact	a66e9cf1-4573-4450-a822-0bcc91474968_fps_avg_aud.mp4	0	0	NaN	NaN	NaN	none	none	NaN	0	0
414	2	89	1	self	1.5	NaN	blue	1	right	right	GLO	none	close	1	intact	intact	Mar23_fps_avg_aud.mp4	0	0	NaN	NaN	NaN	none	none	NaN	0	0
414	2	90	1	self	1.5	NaN	green	0	right	right	GLO	none	close	1	intact	intact	039e9adf-0d8d-4d86-a59c-e7770b0ae616_fps_avg_aud.mp4	0	0	NaN	NaN	NaN	none	none	NaN	0	0
414	2	91	1	self	1.5	NaN	red	0	down	down	GLO	none	far	1	intact	intact	33a33f4c-72c6-457d-828e-a576d3e3a8e3_fps_avg_aud.mp4	0	0	NaN	NaN	NaN	none	none	NaN	0	0
414	2	92	1	self	1.5	NaN	green	0	right	right	GLO	none	far	1	intact	intact	1b336470-7a10-4cc7-aee4-3a5e6e6e551e_fps_avg_aud.mp4	0	0	NaN	NaN	NaN	none	none	NaN	0	0
414	2	93	1	self	1.5	NaN	red	1	right	right	GLO	none	close	1	intact	intact	Jun19_fps_avg_aud.mp4	0	0	NaN	NaN	NaN	none	none	NaN	0	0
414	3	1	1	auto	0.5	0.512511	blue	0	up	up	GLO	left	close	1	intact	intact	520ef496-2bf3-4f3e-8a54-00e0428b126c_fps_avg_aud.mp4	1	0	0.737112	0	1	up	blue	1	0	0
414	3	2	1	auto	0.5	0.512141	yellow	1	up	up	GLO	right	close	0	intact	none	none	0	0	0.715595	0	1	left	yellow	1	0	0
414	3	3	1	auto	0.5	0.509672	red	0	down	down	GLO	right	far	1	intact	intact	July27_fps_avg_aud.mp4	1	0	0.997054	0	1	down	red	1	0	0
414	3	4	1	auto	0.5	0.511348	red	0	down	down	GLO	left	far	1	intact	intact	July23_fps_avg_aud.mp4	1	155	0.961314	0.726172	1	down	red	1	0	0
414	3	5	1	auto	0.5	0.51088	blue	1	right	right	GLO	left	far	1	intact	intact	75c41469-2e99-4ed0-b25f-04259686f11b_fps_avg_aud.mp4	1	235	1.18462	0.951737	1	up	blue	1	0	0
414	3	6	1	auto	0.5	0.513401	red	1	up	up	GLO	right	close	0	intact	none	none	0	0	1.06152	0	1	down	red	1	0	0
414	3	7	1	auto	0.5	0.513502	yellow	1	right	right	GLO	left	far	1	intact	intact	c8d39be1-c442-4655-95ef-034cc2711cda_fps_avg_aud.mp4	1	134	1.03114	0.550476	2	left	yellow	1	0	0
414	3	8	1	auto	0.5	0.51378	blue	1	right	right	GLO	right	close	1	intact	intact	92171dfa-1474-4f0d-8c37-ab1d226fa154(1)_fps_avg_aud.mp4	1	115	1.23831	0.632775	1	up	blue	1	0	0
414	3	9	1	auto	0.5	0.5122	red	1	up	up	GLO	right	close	1	intact	intact	aaed05cf-98e5-42ad-91f7-ba579fcda996_fps_avg_aud.mp4	1	108	0.956228	0.607675	1	down	red	1	0	0
414	3	10	1	auto	0.5	0.510559	red	0	down	down	GLO	right	far	1	intact	intact	c5792f9d-c420-493b-acf2-46528babd08c_fps_avg_aud.mp4	1	164	1.09496	0.787138	1	down	red	1	0	0
414	3	11	1	auto	0.5	0.510853	blue	0	up	up	GLO	right	far	1	intact	intact	1affd9f8-27af-4e8b-9985-5f3abbee6931_fps_avg_aud.mp4	1	112	0.881862	0.500964	1	up	blue	1	0	0
414	3	12	1	auto	0.5	0.511696	green	1	down	down	GLO	right	far	0	intact	none	none	0	0	0.813868	0	1	right	green	1	0	0
414	3	13	1	auto	0.5	0.511051	green	0	right	right	GLO	left	far	1	intact	intact	a24b6226-d6e8-4655-b874-d79fefacec8c_fps_avg_aud.mp4	1	95	0.641012	0.3946	1	right	green	1	0	0
414	3	14	1	auto	0.5	0.51173	yellow	0	left	left	GLO	left	close	0	intact	none	none	0	0	1.24769	0	1	left	yellow	1	0	0
414	3	15	1	auto	0.5	0.512034	blue	1	down	down	GLO	right	close	0	intact	none	none	0	0	0.731852	0	1	up	blue	1	0	0
414	3	16	1	auto	0.5	0.513081	red	0	down	down	GLO	right	close	1	intact	intact	c79830e0-a78a-415b-b7be-95bf79fe1a3a_fps_avg_aud.mp4	1	203	1.58158	1.0139	2	down	red	1	0	0
414	3	17	1	auto	0.5	0.512087	green	0	right	right	GLO	right	close	1	intact	intact	02831e99-5ac8-4fc5-9e76-9a04224fb33e_fps_avg_aud.mp4	1	150	1.01485	0.643781	1	right	green	1	0	0
414	3	18	1	auto	1.5	1.51288	red	1	right	right	GLO	right	close	1	intact	intact	959dfee9-c1d0-4643-9cbd-f9e818b706fa_fps_avg_aud.mp4	1	288	1.58171	1.19985	1	down	red	1	0	0
414	3	19	1	auto	1.5	1.51297	yellow	0	left	left	GLO	right	close	1	intact	intact	Dec31_fps_avg_aud.mp4	1	129	1.12002	0.572416	1	left	yellow	1	0	0
414	3	20	1	auto	1.5	1.51323	yellow	0	left	left	GLO	right	close	1	intact	intact	b70b2fc0-8728-4c47-a0fd-a887a904f1ee_fps_avg_aud.mp4	1	105	1.1307	0.533453	1	left	yellow	1	0	0
414	3	21	1	auto	1.5	1.51349	yellow	1	up	up	GLO	left	close	1	intact	intact	ea69ea96-da66-4080-96c0-6671ca9fd051_fps_avg_aud.mp4	1	123	0.981828	0.659136	1	left	yellow	1	0	0
414	3	22	1	auto	1.5	1.50935	yellow	0	left	left	GLO	right	far	1	intact	intact	e57a35d6-39b7-4b9c-a4a1-844e0bebd3c1_fps_avg_aud.mp4	1	77	0.747164	0.394845	1	left	yellow	1	0	0
414	3	23	1	auto	1.5	1.51092	blue	1	down	down	GLO	left	far	0	intact	none	none	0	0	0.930528	0	1	up	blue	1	0	0
414	3	24	1	auto	1.5	1.51079	blue	0	up	up	GLO	right	close	1	intact	intact	f9a11fba-d584-4a74-ba4f-e5eb4ac62b73_fps_avg_aud.mp4	1	60	0.573325	0.220092	1	up	blue	1	0	0
414	3	25	1	auto	1.5	1.5112	blue	0	up	up	GLO	right	far	0	intact	none	none	0	0	0.565511	0	1	up	blue	1	0	0
414	3	26	1	auto	1.5	1.50768	blue	0	up	up	GLO	left	far	1	intact	intact	17cb4c50-a413-43aa-8ef1-30df975b04f4_fps_avg_aud.mp4	1	125	0.747432	0.491983	1	up	blue	1	0	0
414	3	27	1	auto	1.5	1.5099	green	1	up	up	GLO	left	far	1	intact	intact	June7_fps_avg_aud.mp4	1	130	0.68835	0.462862	1	right	green	1	0	0
414	3	28	1	auto	1.5	1.51128	yellow	0	left	left	GLO	left	close	1	intact	intact	fa34c2a5-d3e2-4d1e-914f-e40c92a49120_fps_avg_aud.mp4	1	166	1.02655	0.815678	1	left	yellow	1	0	0
414	3	29	1	auto	1.5	NaN	red	1	right	right	GLO	none	close	1	intact	intact	September_14_2016_fps_avg_aud.mp4	0	0	NaN	NaN	NaN	none	none	NaN	0	0
414	3	30	1	auto	1.5	NaN	red	1	right	right	GLO	none	far	1	intact	intact	31c3bae2-faf4-4718-b53b-2e88624b3fa5_fps_avg_aud.mp4	0	0	NaN	NaN	NaN	none	none	NaN	0	0
414	3	31	1	auto	1.5	NaN	green	0	right	right	GLO	none	close	1	intact	intact	f08bb9b7-0409-482c-9084-de15481ab2b3_fps_avg_aud.mp4	0	0	NaN	NaN	NaN	none	none	NaN	0	0
414	3	32	1	auto	1.5	NaN	yellow	0	left	left	GLO	none	far	1	intact	intact	b23c9ea6-adb6-492c-965f-16af3f7801e9_fps_avg_aud.mp4	0	0	NaN	NaN	NaN	none	none	NaN	0	0
414	3	33	1	auto	1.5	NaN	green	0	right	right	GLO	none	close	1	intact	intact	de76edf3-7c24-4386-8e6c-01dd4c15291d_fps_avg_aud.mp4	0	0	NaN	NaN	NaN	none	none	NaN	0	0
414	3	34	1	auto	1.5	NaN	yellow	1	down	down	GLO	none	close	0	intact	none	none	0	0	NaN	NaN	NaN	none	none	NaN	0	0
414	3	35	1	auto	1.5	NaN	red	0	down	down	GLO	none	close	0	intact	none	none	0	0	NaN	NaN	NaN	none	none	NaN	0	0
414	3	36	1	auto	1.5	NaN	red	1	right	right	GLO	none	close	1	intact	intact	August_2016_fps_avg_aud.mp4	0	0	NaN	NaN	NaN	none	none	NaN	0	0
414	3	37	1	auto	1.5	NaN	green	1	up	up	GLO	none	far	1	intact	intact	33a33f4c-72c6-457d-828e-a576d3e3a8e3_fps_avg_aud.mp4	0	0	NaN	NaN	NaN	none	none	NaN	0	0
414	3	38	1	auto	1.5	NaN	yellow	1	down	down	GLO	none	close	1	intact	intact	4492b756-14ac-4694-8c38-fa7503b864e1_fps_avg_aud.mp4	0	0	NaN	NaN	NaN	none	none	NaN	0	0
414	3	39	1	auto	1.5	NaN	yellow	0	left	left	GLO	none	close	0	intact	none	none	0	0	NaN	NaN	NaN	none	none	NaN	0	0
414	3	40	1	auto	1.5	NaN	red	1	left	left	GLO	none	far	1	intact	intact	december_2015_(4)_fps_avg_aud.mp4	0	0	NaN	NaN	NaN	none	none	NaN	0	0
414	3	41	1	auto	1.5	NaN	red	1	right	right	GLO	none	far	0	intact	none	none	0	0	NaN	NaN	NaN	none	none	NaN	0	0
414	3	42	1	auto	1.5	NaN	yellow	1	right	right	GLO	none	far	1	intact	intact	705c0056-c7dd-4090-a27e-8956e33cb4b0_fps_avg_aud.mp4	0	0	NaN	NaN	NaN	none	none	NaN	0	0
414	3	43	1	auto	1.5	NaN	red	0	down	down	GLO	none	close	1	intact	intact	January_2016_(3)_fps_avg_aud.mp4	0	0	NaN	NaN	NaN	none	none	NaN	0	0
414	3	44	1	auto	1.5	NaN	green	1	down	down	GLO	none	far	0	intact	none	none	0	0	NaN	NaN	NaN	none	none	NaN	0	0
414	3	45	1	auto	1.5	NaN	yellow	1	right	right	GLO	none	far	1	intact	intact	Dec4_fps_avg_aud.mp4	0	0	NaN	NaN	NaN	none	none	NaN	0	0
414	3	46	1	auto	1.5	NaN	green	0	right	right	GLO	none	close	1	intact	intact	d1495dc6-3264-40ae-807f-007f3ab4bdee_fps_avg_aud.mp4	0	0	NaN	NaN	NaN	none	none	NaN	0	0
414	3	47	1	auto	1.5	NaN	green	0	right	right	GLO	none	far	1	intact	intact	October_2015_fps_avg_aud.mp4	0	0	NaN	NaN	NaN	none	none	NaN	0	0
414	3	48	1	auto	1.5	NaN	red	0	down	down	GLO	none	far	1	intact	intact	ec93e301-9c09-4bba-94b5-edac54ba0e07_fps_avg_aud.mp4	0	0	NaN	NaN	NaN	none	none	NaN	0	0
414	3	49	1	auto	1.5	NaN	yellow	0	left	left	GLO	none	close	0	intact	none	none	0	0	NaN	NaN	NaN	none	none	NaN	0	0
414	3	50	1	auto	1.5	NaN	yellow	0	left	left	GLO	none	far	1	intact	intact	e1d4becd-1ca6-41b0-82ab-58d50a368204_fps_avg_aud.mp4	0	0	NaN	NaN	NaN	none	none	NaN	0	0
414	3	51	1	auto	1.5	NaN	green	0	right	right	GLO	none	far	1	intact	intact	November_14_2016_fps_avg_aud.mp4	0	0	NaN	NaN	NaN	none	none	NaN	0	0
414	3	52	1	auto	1.5	NaN	red	1	up	up	GLO	none	close	1	intact	intact	cabd6947-9e88-4e9a-90fa-985b610f3784_fps_avg_aud.mp4	0	0	NaN	NaN	NaN	none	none	NaN	0	0
414	3	53	1	auto	1.5	NaN	red	0	down	down	GLO	none	far	1	intact	intact	August_2016_(1)_fps_avg_aud.mp4	0	0	NaN	NaN	NaN	none	none	NaN	0	0
414	3	54	1	auto	1.5	NaN	green	1	down	down	GLO	none	close	1	intact	intact	b55ab065-b20b-4b90-b1fd-ca55d667b668_fps_avg_aud.mp4	0	0	NaN	NaN	NaN	none	none	NaN	0	0
414	3	55	1	auto	1.5	NaN	red	1	up	up	GLO	none	close	0	intact	none	none	0	0	NaN	NaN	NaN	none	none	NaN	0	0
414	3	56	1	auto	1.5	NaN	green	1	left	left	GLO	none	far	1	intact	intact	Nov24_fps_avg_aud.mp4	0	0	NaN	NaN	NaN	none	none	NaN	0	0
414	3	57	1	auto	1.5	NaN	yellow	1	down	down	GLO	none	far	0	intact	none	none	0	0	NaN	NaN	NaN	none	none	NaN	0	0
414	3	58	1	auto	1.5	NaN	green	1	up	up	GLO	none	far	1	intact	intact	bfb38b58-a56a-427a-a233-3b6663beed7c_fps_avg_aud.mp4	0	0	NaN	NaN	NaN	none	none	NaN	0	0
414	3	59	1	auto	1.5	NaN	red	1	left	left	GLO	none	far	1	intact	intact	Feb28_fps_avg_aud.mp4	0	0	NaN	NaN	NaN	none	none	NaN	0	0
414	3	60	1	auto	1.5	NaN	green	1	up	up	GLO	none	far	1	intact	intact	Feb29_fps_avg_aud.mp4	0	0	NaN	NaN	NaN	none	none	NaN	0	0
414	3	61	1	auto	1.5	NaN	green	1	left	left	GLO	none	close	0	intact	none	none	0	0	NaN	NaN	NaN	none	none	NaN	0	0
414	3	62	1	auto	1.5	NaN	green	0	right	right	GLO	none	close	0	intact	none	none	0	0	NaN	NaN	NaN	none	none	NaN	0	0
414	3	63	1	auto	1.5	NaN	green	0	right	right	GLO	none	far	1	intact	intact	Oct1_fps_avg_aud.mp4	0	0	NaN	NaN	NaN	none	none	NaN	0	0
414	3	64	1	auto	1.5	NaN	blue	1	right	right	GLO	none	close	1	intact	intact	73d0e54a-1b4c-4f00-a562-b71360349bdf_fps_avg_aud.mp4	0	0	NaN	NaN	NaN	none	none	NaN	0	0
414	3	65	1	auto	1.5	NaN	green	0	right	right	GLO	none	close	0	intact	none	none	0	0	NaN	NaN	NaN	none	none	NaN	0	0
414	3	66	1	auto	1.5	NaN	red	0	down	down	GLO	none	far	1	intact	intact	0ee64e11-96b9-4476-a12c-a99a4b58a965_fps_avg_aud.mp4	0	0	NaN	NaN	NaN	none	none	NaN	0	0
414	3	67	1	auto	1.5	NaN	red	0	down	down	GLO	none	far	0	intact	none	none	0	0	NaN	NaN	NaN	none	none	NaN	0	0
414	3	68	1	auto	1.5	NaN	red	0	down	down	GLO	none	close	0	intact	none	none	0	0	NaN	NaN	NaN	none	none	NaN	0	0
414	3	69	1	auto	1.5	NaN	blue	0	up	up	GLO	none	close	0	intact	none	none	0	0	NaN	NaN	NaN	none	none	NaN	0	0
414	3	70	1	auto	1.5	NaN	green	1	up	up	GLO	none	close	0	intact	none	none	0	0	NaN	NaN	NaN	none	none	NaN	0	0
414	3	71	1	auto	1.5	NaN	blue	1	right	right	GLO	none	close	0	intact	none	none	0	0	NaN	NaN	NaN	none	none	NaN	0	0
414	3	72	1	auto	1.5	NaN	red	0	down	down	GLO	none	far	0	intact	none	none	0	0	NaN	NaN	NaN	none	none	NaN	0	0
414	3	73	1	auto	1.5	NaN	yellow	0	left	left	GLO	none	far	1	intact	intact	Sep22_fps_avg_aud.mp4	0	0	NaN	NaN	NaN	none	none	NaN	0	0
414	3	74	1	auto	1.5	NaN	red	1	right	right	GLO	none	close	1	intact	intact	5b8d6efa-e1ab-4dc5-b720-51d467e90859_fps_avg_aud.mp4	0	0	NaN	NaN	NaN	none	none	NaN	0	0
414	3	75	1	auto	1.5	NaN	yellow	1	right	right	GLO	none	far	1	intact	intact	0634b486-cb5f-4c95-88ac-759458166474_fps_avg_aud.mp4	0	0	NaN	NaN	NaN	none	none	NaN	0	0
414	3	76	1	auto	1.5	NaN	red	0	down	down	GLO	none	far	0	intact	none	none	0	0	NaN	NaN	NaN	none	none	NaN	0	0
414	3	77	1	auto	1.5	NaN	yellow	0	left	left	GLO	none	close	1	intact	intact	91a36f37-93be-4754-9ddb-f173f29574e1_fps_avg_aud.mp4	0	0	NaN	NaN	NaN	none	none	NaN	0	0
414	3	78	1	auto	1.5	NaN	blue	1	down	down	GLO	none	far	1	intact	intact	august_15_2016_fps_avg_aud.mp4	0	0	NaN	NaN	NaN	none	none	NaN	0	0
414	3	79	1	auto	1.5	NaN	blue	1	right	right	GLO	none	close	1	intact	intact	8e8c5e28-7fba-491b-88f9-891e8e26ddbd_fps_avg_aud.mp4	0	0	NaN	NaN	NaN	none	none	NaN	0	0
414	3	80	1	auto	1.5	NaN	red	0	down	down	GLO	none	close	1	intact	intact	June_2016_(1)_fps_avg_aud.mp4	0	0	NaN	NaN	NaN	none	none	NaN	0	0
414	3	81	1	auto	1.5	NaN	red	0	down	down	GLO	none	far	1	intact	intact	november_5_2015_fps_avg_aud.mp4	0	0	NaN	NaN	NaN	none	none	NaN	0	0
414	3	82	1	auto	1.5	NaN	blue	0	up	up	GLO	none	far	1	intact	intact	July31_fps_avg_aud.mp4	0	0	NaN	NaN	NaN	none	none	NaN	0	0
414	3	83	1	auto	1.5	NaN	blue	1	left	left	GLO	none	far	1	intact	intact	bd3765b8-eb64-440a-a4a8-b6804686fcae_fps_avg_aud.mp4	0	0	NaN	NaN	NaN	none	none	NaN	0	0
414	3	84	1	auto	1.5	NaN	yellow	0	left	left	GLO	none	far	1	intact	intact	Apr30_fps_avg_aud.mp4	0	0	NaN	NaN	NaN	none	none	NaN	0	0
414	3	85	1	auto	1.5	NaN	green	0	right	right	GLO	none	far	1	intact	intact	Jan19_fps_avg_aud.mp4	0	0	NaN	NaN	NaN	none	none	NaN	0	0
414	3	86	1	auto	1.5	NaN	blue	0	up	up	GLO	none	far	1	intact	intact	86e20a10-46be-4f52-b05b-06877412cf60_fps_avg_aud.mp4	0	0	NaN	NaN	NaN	none	none	NaN	0	0
414	3	87	1	auto	1.5	NaN	blue	0	up	up	GLO	none	far	1	intact	intact	8ef19348-df54-46b9-9672-f236fb24f042_fps_avg_aud.mp4	0	0	NaN	NaN	NaN	none	none	NaN	0	0
414	3	88	1	auto	1.5	NaN	green	0	right	right	GLO	none	far	0	intact	none	none	0	0	NaN	NaN	NaN	none	none	NaN	0	0
414	3	89	1	auto	1.5	NaN	yellow	1	up	up	GLO	none	close	1	intact	intact	Feb17_fps_avg_aud.mp4	0	0	NaN	NaN	NaN	none	none	NaN	0	0
414	3	90	1	auto	1.5	NaN	red	1	left	left	GLO	none	far	0	intact	none	none	0	0	NaN	NaN	NaN	none	none	NaN	0	0
414	3	91	1	auto	1.5	NaN	blue	0	up	up	GLO	none	far	1	intact	intact	July3_fps_avg_aud.mp4	0	0	NaN	NaN	NaN	none	none	NaN	0	0
414	3	92	1	auto	1.5	NaN	yellow	1	down	down	GLO	none	far	0	intact	none	none	0	0	NaN	NaN	NaN	none	none	NaN	0	0
414	3	93	1	auto	1.5	NaN	blue	0	up	up	GLO	none	close	1	intact	intact	0676fced-76c5-4cb7-bd2b-7d257e147aad_fps_avg_aud.mp4	0	0	NaN	NaN	NaN	none	none	NaN	0	0
414	4	1	0	auto	0.5	0.511464	blue	1	down	down	GLO	right	far	1	intact	intact	61be81ef-2338-498f-a09a-fd23aea0f3ec_fps_avg_aud.mp4	1	0	0.961471	0	1	up	blue	1	0.001	low
414	4	2	0	auto	0.5	0.513341	green	1	down	down	GLO	right	far	0	intact	none	none	0	0	0.681116	0	1	right	green	1	0.002	low
414	4	3	0	auto	0.5	0.510862	red	0	down	down	GLO	right	far	0	intact	none	none	0	0	0.9471	0	1	down	red	1	0.003	low
414	4	4	0	auto	0.5	0.512511	red	0	down	down	GLO	left	close	0	intact	none	none	0	0	0.62916	0	1	down	red	1	0.004	low
414	4	5	0	auto	0.5	0.510218	red	0	down	down	GLO	left	far	0	intact	none	none	0	0	0.548273	0	1	down	red	1	0.005	low
414	4	6	0	auto	0.5	0.51271	yellow	0	left	left	GLO	right	far	0	intact	none	none	0	0	1.01469	0	1	left	yellow	1	0.006	low
414	4	7	0	auto	0.5	0.511731	red	1	right	right	GLO	left	close	1	intact	intact	January_2016_(2)_fps_avg_aud.mp4	1	0	0.911553	0	1	down	red	1	0.007	low
414	4	8	0	auto	0.5	0.512083	yellow	1	right	right	GLO	left	close	0	intact	none	none	0	0	1.88907	0	1	left	yellow	1	0.008	low
414	4	9	0	auto	0.5	0.515026	blue	1	right	right	GLO	left	close	1	intact	intact	54a93c98-7413-4e40-aca3-12bf7a6220c7_fps_avg_aud.mp4	1	0	0.954941	0	1	up	blue	1	0.009	low
414	4	10	0	auto	0.5	0.511299	blue	0	up	up	GLO	left	close	1	intact	intact	690b1209-9514-4bd6-9698-3a990594f223_fps_avg_aud.mp4	1	0	0.539761	0	1	up	blue	1	0.01	low
414	4	11	0	auto	0.5	0.50959	yellow	0	left	left	GLO	left	far	0	intact	none	none	0	0	0.647392	0	1	left	yellow	1	0.011	low
414	4	12	0	auto	0.5	0.509718	green	0	right	right	GLO	right	close	1	intact	intact	6189325b-e315-4417-8d81-a8cae54059df_fps_avg_aud.mp4	1	0	0.572634	0	1	right	green	1	0.012	low
414	4	13	0	auto	0.5	0.512587	green	1	left	left	GLO	left	far	0	intact	none	none	0	0	0.615308	0	1	right	green	1	0.013	low
414	4	14	0	auto	0.5	0.509272	yellow	0	left	left	GLO	right	close	1	intact	intact	Jan27_fps_avg_aud.mp4	1	0	0.553551	0	1	left	yellow	1	0.014	low
414	4	15	0	auto	0.5	0.509118	yellow	1	right	right	GLO	right	far	1	intact	intact	c59b0a3f-09df-4660-a241-ebba5fb01e57_fps_avg_aud.mp4	1	0	0.631336	0	1	left	yellow	1	0.015	low
414	4	16	0	auto	0.5	0.51045	yellow	0	left	left	GLO	left	close	0	intact	none	none	0	0	0.415464	0	1	left	yellow	1	0.016	low
414	4	17	0	auto	0.5	0.510057	yellow	0	left	left	GLO	left	close	1	intact	intact	January_2016_(1)_fps_avg_aud.mp4	1	0	0.429125	0	1	left	yellow	1	0.017	low
414	4	18	0	auto	0.5	0.511047	yellow	1	right	right	GLO	left	close	1	intact	intact	bd6f74c6-a8d8-4bf6-bf1e-d008c6733318_fps_avg_aud.mp4	1	0	0.648819	0	1	left	yellow	1	0.018	low
414	4	19	0	auto	0.5	0.511115	green	0	right	right	GLO	right	close	0	intact	none	none	0	0	0.464975	0	1	right	green	1	0.019	low
414	4	20	0	auto	0.5	0.512584	red	1	left	left	GLO	left	close	1	intact	intact	11f7e237-860e-4d5b-9743-89fc16a3360b_fps_avg_aud.mp4	1	0	0.947653	0	1	down	red	1	0.02	low
414	4	21	0	auto	0.5	0.511073	blue	1	right	right	GLO	right	close	1	intact	intact	b502b8fe-bf35-4777-bc2b-b5e93b1b3223_fps_avg_aud.mp4	1	0	0.708326	0	1	up	blue	1	0.021	low
414	4	22	0	auto	0.5	0.511002	yellow	1	down	down	GLO	right	close	0	intact	none	none	0	0	0.646721	0	1	left	yellow	1	0.022	low
414	4	23	0	auto	0.5	0.511659	blue	1	down	down	GLO	left	far	1	intact	intact	Jun6_fps_avg_aud.mp4	1	0	0.684329	0	1	up	blue	1	0.023	low
414	4	24	0	auto	0.5	0.510363	red	1	left	left	GLO	right	far	1	intact	intact	Febraury_2016_fps_avg_aud.mp4	1	0	0.986996	0	1	down	red	1	0.024	low
414	4	25	0	auto	0.5	0.509664	red	0	down	down	GLO	left	close	1	intact	intact	f10531c5-f8e7-4f38-bd6c-28ce29d75760_fps_avg_aud.mp4	1	0	0.914693	0	1	down	red	1	0.025	low
414	4	26	0	auto	0.5	0.512122	red	1	right	right	GLO	left	close	1	intact	intact	7b9f55fa-3ddf-4c84-bb13-2413d53cbf75_fps_avg_aud.mp4	1	0	0.560277	0	1	down	red	1	0.026	low
414	4	27	0	auto	0.5	0.513251	green	1	down	down	GLO	left	close	1	intact	intact	030a135d-605a-42ea-902a-469aeded471a_fps_avg_aud.mp4	1	0	0.856258	0	1	right	green	1	0.027	low
414	4	28	0	auto	0.5	0.510121	green	1	down	down	GLO	right	close	0	intact	none	none	0	0	0.481328	0	1	right	green	1	0.028	low
414	4	29	0	auto	0.5	0.508112	red	0	down	down	GLO	left	far	1	intact	intact	march_21_2016_fps_avg_aud.mp4	1	0	0.789072	0	1	down	red	1	0.029	low
414	4	30	0	auto	0.5	0.5128	yellow	1	up	up	GLO	left	close	0	intact	none	none	0	0	0.832024	0	1	left	yellow	1	0.03	low
414	4	31	0	auto	0.5	0.510382	blue	1	left	left	GLO	left	close	0	intact	none	none	0	0	0.477978	0	1	up	blue	1	0.031	low
414	4	32	0	auto	0.5	0.511587	green	1	down	down	GLO	left	close	1	intact	intact	33a33f4c-72c6-457d-828e-a576d3e3a8e3_fps_avg_aud.mp4	1	0	0.572045	0	1	right	green	1	0.032	low
414	4	33	0	auto	0.5	0.510157	red	0	down	down	GLO	left	far	1	intact	intact	08d3f099-f57f-4490-a984-630519ad1c45_fps_avg_aud.mp4	1	0	1.4821	0	1	down	red	1	0.033	low
414	4	34	0	auto	0.5	0.512419	yellow	1	right	right	GLO	right	close	1	intact	intact	Jan19_fps_avg_aud.mp4	1	0	1.1244	0	1	left	yellow	1	0.034	low
414	4	35	0	auto	0.5	0.509572	green	0	right	right	GLO	right	far	1	intact	intact	October_10_2016_(1)_fps_avg_aud.mp4	1	0	0.508449	0	1	right	green	1	0.035	low
414	4	36	0	auto	0.5	0.512485	red	1	right	right	GLO	left	close	1	intact	intact	d59b9ee2-e1af-4171-a59e-9daefced695e_fps_avg_aud.mp4	1	0	1.07442	0	1	down	red	1	0.036	low
414	4	37	0	auto	0.5	0.509322	red	1	right	right	GLO	left	close	1	intact	intact	bd3765b8-eb64-440a-a4a8-b6804686fcae_fps_avg_aud.mp4	1	0	0.779289	0	1	down	red	1	0.037	low
414	4	38	0	auto	0.5	0.511166	blue	0	up	up	GLO	left	far	1	intact	intact	june_18_2015_fps_avg_aud.mp4	1	0	0.964649	0	1	up	blue	1	0.038	low
414	4	39	0	auto	0.5	0.510764	blue	0	up	up	GLO	left	far	1	intact	intact	bca3f84c-663e-49dd-9b23-05262dbf1e96_fps_avg_aud.mp4	1	0	0.58111	0	1	up	blue	1	0.039	low
414	4	40	0	auto	0.5	0.511922	yellow	1	up	up	GLO	left	close	0	intact	none	none	0	0	0.615089	0	1	left	yellow	1	0.04	low
414	4	41	0	auto	0.5	0.511882	blue	1	right	right	GLO	right	close	1	intact	intact	326ee18c-0cd5-4c39-ac0f-082f53449aa4_fps_avg_aud.mp4	1	0	0.707714	0	1	up	blue	1	0.041	low
414	4	42	0	auto	0.5	0.513447	green	1	down	down	GLO	left	close	1	intact	intact	October_2015_fps_avg_aud.mp4	1	0	0.63456	0	1	right	green	1	0.042	low
414	4	43	0	auto	0.5	0.510815	yellow	1	up	up	GLO	left	far	0	intact	none	none	0	0	0.681284	0	1	left	yellow	1	0.043	low
414	4	44	0	auto	0.5	0.512709	red	0	down	down	GLO	right	close	1	intact	intact	Feb28_fps_avg_aud.mp4	1	0	0.880336	0	1	down	red	1	0.044	low
414	4	45	0	auto	0.5	0.512407	green	0	right	right	GLO	left	far	0	intact	none	none	0	0	0.464335	0	1	right	green	1	0.045	low
414	4	46	0	auto	0.5	NaN	blue	1	left	left	GLO	none	close	1	intact	intact	e6c6cdbe-2a63-4eeb-b544-6fc0a25dc157_fps_avg_aud.mp4	0	0	NaN	NaN	NaN	none	none	NaN	0.045	low
414	4	47	0	auto	0.5	NaN	red	0	down	down	GLO	none	far	1	intact	intact	ea6675d4-3684-48c3-9bd0-c32d38c48c9e_fps_avg_aud.mp4	0	0	NaN	NaN	NaN	none	none	NaN	0.045	low
414	4	48	0	auto	0.5	NaN	red	1	right	right	GLO	none	far	1	intact	intact	0634b486-cb5f-4c95-88ac-759458166474_fps_avg_aud.mp4	0	0	NaN	NaN	NaN	none	none	NaN	0.045	low
414	4	49	0	auto	0.5	NaN	yellow	1	right	right	GLO	none	far	0	intact	none	none	0	0	NaN	NaN	NaN	none	none	NaN	0.045	low
414	4	50	0	auto	0.5	NaN	red	1	right	right	GLO	none	far	1	intact	intact	ab1e6c91-a115-4b2d-8609-b4e2233254d6_fps_avg_aud.mp4	0	0	NaN	NaN	NaN	none	none	NaN	0.045	low
414	4	51	0	auto	0.5	NaN	blue	1	left	left	GLO	none	close	0	intact	none	none	0	0	NaN	NaN	NaN	none	none	NaN	0.045	low
414	4	52	0	auto	0.5	NaN	green	0	right	right	GLO	none	close	0	intact	none	none	0	0	NaN	NaN	NaN	none	none	NaN	0.045	low
414	4	53	0	auto	0.5	NaN	green	0	right	right	GLO	none	far	1	intact	intact	24481237-3ead-4e6a-9a61-be95f34bf5f2_fps_avg_aud.mp4	0	0	NaN	NaN	NaN	none	none	NaN	0.045	low
414	4	54	0	auto	0.5	NaN	blue	0	up	up	GLO	none	close	0	intact	none	none	0	0	NaN	NaN	NaN	none	none	NaN	0.045	low
414	4	55	0	auto	0.5	NaN	yellow	0	left	left	GLO	none	close	1	intact	intact	4f243f72-5a08-4b19-aa43-2448c9f0545d_fps_avg_aud.mp4	0	0	NaN	NaN	NaN	none	none	NaN	0.045	low
414	4	56	0	auto	0.5	NaN	blue	1	down	down	GLO	none	far	0	intact	none	none	0	0	NaN	NaN	NaN	none	none	NaN	0.045	low
414	4	57	0	auto	0.5	NaN	green	1	down	down	GLO	none	close	0	intact	none	none	0	0	NaN	NaN	NaN	none	none	NaN	0.045	low
414	4	58	0	auto	0.5	NaN	yellow	1	up	up	GLO	none	far	1	intact	intact	93875f0f-82c8-483c-b71c-a32b6cf111d2_fps_avg_aud.mp4	0	0	NaN	NaN	NaN	none	none	NaN	0.045	low
414	4	59	0	auto	0.5	NaN	green	1	up	up	GLO	none	close	1	intact	intact	July_2015_fps_avg_aud.mp4	0	0	NaN	NaN	NaN	none	none	NaN	0.045	low
414	4	60	0	auto	0.5	NaN	red	0	down	down	GLO	none	close	1	intact	intact	fc2af016-0a80-4148-823b-d9176c33cf3a_fps_avg_aud.mp4	0	0	NaN	NaN	NaN	none	none	NaN	0.045	low
414	4	61	0	auto	0.5	NaN	yellow	0	left	left	GLO	none	far	1	intact	intact	43373659-2842-4fad-950a-4472afef2f38_fps_avg_aud.mp4	0	0	NaN	NaN	NaN	none	none	NaN	0.045	low
414	4	62	0	auto	0.5	NaN	green	1	down	down	GLO	none	far	1	intact	intact	Mar19_fps_avg_aud.mp4	0	0	NaN	NaN	NaN	none	none	NaN	0.045	low
414	4	63	0	auto	0.5	NaN	red	0	down	down	GLO	none	far	0	intact	none	none	0	0	NaN	NaN	NaN	none	none	NaN	0.045	low
414	4	64	0	auto	0.5	NaN	red	0	down	down	GLO	none	far	1	intact	intact	f1caa1d5-1230-4918-b000-58763883bff3_fps_avg_aud.mp4	0	0	NaN	NaN	NaN	none	none	NaN	0.045	low
414	4	65	0	auto	0.5	NaN	blue	0	up	up	GLO	none	close	0	intact	none	none	0	0	NaN	NaN	NaN	none	none	NaN	0.045	low
414	4	66	0	auto	0.5	NaN	blue	0	up	up	GLO	none	far	0	intact	none	none	0	0	NaN	NaN	NaN	none	none	NaN	0.045	low
414	4	67	0	auto	0.5	NaN	red	0	down	down	GLO	none	far	0	intact	none	none	0	0	NaN	NaN	NaN	none	none	NaN	0.045	low
414	4	68	0	auto	0.5	NaN	red	0	down	down	GLO	none	far	1	intact	intact	Jan20_fps_avg_aud.mp4	0	0	NaN	NaN	NaN	none	none	NaN	0.045	low
414	4	69	0	auto	0.5	NaN	yellow	0	left	left	GLO	none	close	0	intact	none	none	0	0	NaN	NaN	NaN	none	none	NaN	0.045	low
414	4	70	0	auto	0.5	NaN	red	0	down	down	GLO	none	close	1	intact	intact	Dec27_fps_avg_aud.mp4	0	0	NaN	NaN	NaN	none	none	NaN	0.045	low
414	4	71	0	auto	0.5	NaN	blue	0	up	up	GLO	none	close	0	intact	none	none	0	0	NaN	NaN	NaN	none	none	NaN	0.045	low
414	4	72	0	auto	0.5	NaN	red	1	right	right	GLO	none	far	1	intact	intact	d1495dc6-3264-40ae-807f-007f3ab4bdee_fps_avg_aud.mp4	0	0	NaN	NaN	NaN	none	none	NaN	0.045	low
414	4	73	0	auto	0.5	NaN	red	1	up	up	GLO	none	far	1	intact	intact	d474c6db-95a4-4753-b361-ee940450cd55_fps_avg_aud.mp4	0	0	NaN	NaN	NaN	none	none	NaN	0.045	low
414	4	74	0	auto	0.5	NaN	blue	0	up	up	GLO	none	close	0	intact	none	none	0	0	NaN	NaN	NaN	none	none	NaN	0.045	low
414	4	75	0	auto	0.5	NaN	green	1	down	down	GLO	none	close	1	intact	intact	f5740bdb-f6a7-4842-9fa8-065f8eed57f4_fps_avg_aud.mp4	0	0	NaN	NaN	NaN	none	none	NaN	0.045	low
414	4	76	0	auto	0.5	NaN	blue	0	up	up	GLO	none	close	0	intact	none	none	0	0	NaN	NaN	NaN	none	none	NaN	0.045	low
414	4	77	0	auto	0.5	NaN	yellow	0	left	left	GLO	none	close	1	intact	intact	b30caa2d-af05-4325-9f3a-3d34dcb611e7_fps_avg_aud.mp4	0	0	NaN	NaN	NaN	none	none	NaN	0.045	low
414	4	78	0	auto	0.5	NaN	yellow	1	down	down	GLO	none	close	1	intact	intact	705c0056-c7dd-4090-a27e-8956e33cb4b0_fps_avg_aud.mp4	0	0	NaN	NaN	NaN	none	none	NaN	0.045	low
414	4	79	0	auto	0.5	NaN	red	1	left	left	GLO	none	close	1	intact	intact	Jan10_fps_avg_aud.mp4	0	0	NaN	NaN	NaN	none	none	NaN	0.045	low
414	4	80	0	auto	0.5	NaN	yellow	1	up	up	GLO	none	far	1	intact	intact	a5a4b0ce-b05f-41d9-b172-00b13f0d8828_fps_avg_aud.mp4	0	0	NaN	NaN	NaN	none	none	NaN	0.045	low
414	4	81	0	auto	0.5	NaN	red	0	down	down	GLO	none	close	0	intact	none	none	0	0	NaN	NaN	NaN	none	none	NaN	0.045	low
414	4	82	0	auto	0.5	NaN	yellow	1	right	right	GLO	none	close	1	intact	intact	4492b756-14ac-4694-8c38-fa7503b864e1_fps_avg_aud.mp4	0	0	NaN	NaN	NaN	none	none	NaN	0.045	low
414	4	83	0	auto	0.5	NaN	blue	1	down	down	GLO	none	close	1	intact	intact	Jun30_fps_avg_aud.mp4	0	0	NaN	NaN	NaN	none	none	NaN	0.045	low
414	4	84	0	auto	0.5	NaN	yellow	0	left	left	GLO	none	close	0	intact	none	none	0	0	NaN	NaN	NaN	none	none	NaN	0.045	low
414	4	85	0	auto	0.5	NaN	red	1	left	left	GLO	none	close	1	intact	intact	October_25_2016_fps_avg_aud.mp4	0	0	NaN	NaN	NaN	none	none	NaN	0.045	low
414	4	86	0	auto	0.5	NaN	yellow	1	right	right	GLO	none	close	1	intact	intact	7ed41b90-fac5-42bc-94a9-a4d7f021d578_fps_avg_aud.mp4	0	0	NaN	NaN	NaN	none	none	NaN	0.045	low
414	4	87	0	auto	0.5	NaN	red	0	down	down	GLO	none	far	1	intact	intact	Feb17_fps_avg_aud.mp4	0	0	NaN	NaN	NaN	none	none	NaN	0.045	low
414	4	88	0	auto	0.5	NaN	blue	0	up	up	GLO	none	far	0	intact	none	none	0	0	NaN	NaN	NaN	none	none	NaN	0.045	low
414	4	89	0	auto	0.5	NaN	yellow	0	left	left	GLO	none	far	1	intact	intact	Dec4_fps_avg_aud.mp4	0	0	NaN	NaN	NaN	none	none	NaN	0.045	low
414	4	90	0	auto	0.5	NaN	yellow	0	left	left	GLO	none	far	0	intact	none	none	0	0	NaN	NaN	NaN	none	none	NaN	0.045	low
414	4	91	0	auto	0.5	NaN	red	1	up	up	GLO	none	far	1	intact	intact	19665232-505f-47ba-bfb2-2e9668369ce4_fps_avg_aud.mp4	0	0	NaN	NaN	NaN	none	none	NaN	0.045	low
414	4	92	0	auto	0.5	NaN	red	1	left	left	GLO	none	far	1	intact	intact	d0082a79-d6fc-4855-80df-f443f4a14e37_fps_avg_aud.mp4	0	0	NaN	NaN	NaN	none	none	NaN	0.045	low
414	4	93	0	auto	0.5	NaN	red	1	right	right	GLO	none	far	1	intact	intact	September_14_2016_fps_avg_aud.mp4	0	0	NaN	NaN	NaN	none	none	NaN	0.045	low
414	5	1	0	self	0.5	0.511424	green	1	down	down	GLO	right	far	1	intact	intact	16fe28b7-019b-49e7-9b4b-6b9fba85fe3d_fps_avg_aud.mp4	0	0	0.880805	0	1	right	green	1	0.046	low
414	5	2	0	self	0.5	0.512503	green	0	right	right	GLO	left	close	1	intact	intact	Mar23_fps_avg_aud.mp4	0	0	0.498405	0	1	right	green	1	0.047	low
414	5	3	0	self	0.5	0.510348	blue	1	right	right	GLO	left	close	1	intact	intact	cfde3402-3742-4dda-82a3-7c69c497e0f8_fps_avg_aud.mp4	0	0	0.762922	0	1	up	blue	1	0.048	low
414	5	4	0	self	0.5	0.510206	green	0	right	right	GLO	left	far	1	intact	intact	bb75a9e7-75e9-4641-8e0c-ecaabf7a7e69(1)_fps_avg_aud.mp4	0	0	0.491396	0	1	right	green	1	0.049	low
414	5	5	0	self	0.5	0.511719	green	1	left	left	GLO	right	far	1	intact	intact	July6_fps_avg_aud.mp4	0	0	0.514306	0	1	right	green	1	0.05	low
414	5	6	0	self	0.5	0.508994	red	0	down	down	GLO	left	far	1	intact	intact	ede4a096-21dc-4ed4-9b28-6df0a7f6fe6b_fps_avg_aud.mp4	0	0	0.797657	0	1	down	red	1	0.051	low
414	5	7	0	self	0.5	0.513415	red	1	left	left	GLO	left	close	1	intact	intact	Mar21_fps_avg_aud.mp4	0	0	0.405936	0	1	down	red	1	0.052	low
414	5	8	0	self	0.5	0.510111	green	1	up	up	GLO	right	close	1	intact	intact	5b8d6efa-e1ab-4dc5-b720-51d467e90859_fps_avg_aud.mp4	0	0	0.798748	0	1	up	blue	0	0.051	low
414	5	9	0	self	0.5	0.511771	yellow	0	left	left	GLO	right	far	1	intact	intact	8e8c5e28-7fba-491b-88f9-891e8e26ddbd_fps_avg_aud.mp4	0	0	1.03064	0	1	left	yellow	1	0.052	low
414	5	10	0	self	0.5	0.511688	blue	0	up	up	GLO	right	close	1	intact	intact	8b0c9e6a-53bd-46f6-908f-7a8316798b92_fps_avg_aud.mp4	0	0	0.698102	0	1	up	blue	1	0.053	low
414	5	11	0	self	0.5	0.509271	green	0	right	right	GLO	left	close	1	intact	intact	Nmarch122015_fps_avg_aud.mp4	0	0	0.648278	0	1	right	green	1	0.054	low
414	5	12	0	self	0.5	0.510343	green	0	right	right	GLO	right	far	1	intact	intact	b4d84d1f-224c-4414-9045-0f7e4fc94012_fps_avg_aud.mp4	0	0	0.448319	0	1	right	green	1	0.055	low
414	5	13	0	self	0.5	0.510995	yellow	0	left	left	GLO	left	close	1	intact	intact	Nov9_fps_avg_aud.mp4	0	0	0.780733	0	1	left	yellow	1	0.056	low
414	5	14	0	self	0.5	0.510845	blue	1	down	down	GLO	left	close	1	intact	intact	0676fced-76c5-4cb7-bd2b-7d257e147aad_fps_avg_aud.mp4	0	0	0.829795	0	1	up	blue	1	0.057	low
414	5	15	0	self	0.5	0.510832	blue	1	right	right	GLO	right	close	1	intact	intact	May_2016_(1)_fps_avg_aud.mp4	0	0	0.496157	0	1	up	blue	1	0.058	low
414	5	16	0	self	0.5	0.510708	green	0	right	right	GLO	left	far	1	intact	intact	Mar25_fps_avg_aud.mp4	0	0	0.607984	0	1	right	green	1	0.059	low
414	5	17	0	self	0.5	0.508436	green	0	right	right	GLO	right	close	1	intact	intact	e3ba147b-ae8e-4b27-9412-577f6cfd64f4_fps_avg_aud.mp4	0	0	0.424427	0	1	right	green	1	0.06	low
414	5	18	0	self	0.5	0.51067	red	1	up	up	GLO	left	far	1	intact	intact	January_4_2016_fps_avg_aud.mp4	0	0	1.04698	0	1	down	red	1	0.061	low
414	5	19	0	self	0.5	0.513489	red	0	down	down	GLO	left	far	1	intact	intact	Aug30_fps_avg_aud.mp4	0	0	0.562606	0	1	down	red	1	0.062	low
414	5	20	0	self	0.5	0.512092	yellow	0	left	left	GLO	left	close	1	intact	intact	32a37ce7-a199-40eb-b5c5-b974866ffc28_fps_avg_aud.mp4	0	0	0.880764	0	1	left	yellow	1	0.063	low
414	5	21	0	self	0.5	0.510562	blue	1	left	left	GLO	right	close	1	intact	intact	2ee32cdc-eb1b-4b14-b0d7-fb25b7ed46e3_fps_avg_aud.mp4	0	0	0.774328	0	1	up	blue	1	0.064	low
414	5	22	0	self	0.5	0.511802	blue	0	up	up	GLO	right	close	1	intact	intact	Nov19_fps_avg_aud.mp4	0	0	0.480474	0	1	up	blue	1	0.065	low
414	5	23	0	self	0.5	0.511436	blue	0	up	up	GLO	right	far	1	intact	intact	Sep24_fps_avg_aud.mp4	0	0	0.381329	0	1	up	blue	1	0.066	low
414	5	24	0	self	0.5	0.509342	yellow	0	left	left	GLO	right	far	1	intact	intact	Mar14_fps_avg_aud.mp4	0	0	0.696578	0	1	left	yellow	1	0.067	low
414	5	25	0	self	0.5	0.51112	blue	0	up	up	GLO	right	far	1	intact	intact	8b38af47-0b70-4682-ac0e-c7a415e91156_fps_avg_aud.mp4	0	0	0.514049	0	1	up	blue	1	0.068	low
414	5	26	0	self	0.5	0.510211	yellow	0	left	left	GLO	right	close	1	intact	intact	af8a1933-c829-43c1-8393-4abd55081a1d_fps_avg_aud.mp4	0	0	0.748297	0	1	left	yellow	1	0.069	low
414	5	27	0	self	0.5	0.511918	blue	1	left	left	GLO	right	close	1	intact	intact	0096623f-bd93-48df-96f9-85a0a749a586_fps_avg_aud.mp4	0	0	0.73066	0	1	up	blue	1	0.07	low
414	5	28	0	self	0.5	0.511052	red	0	down	down	GLO	left	close	1	intact	intact	d4f25bdd-9060-452d-8b9a-299b4d79a939_fps_avg_aud.mp4	0	0	0.721689	0	1	down	red	1	0.071	low
414	5	29	0	self	0.5	0.511806	green	1	up	up	GLO	right	close	1	intact	intact	Apr16_fps_avg_aud.mp4	0	0	0.742086	0	1	right	green	1	0.072	low
414	5	30	0	self	0.5	0.512134	red	1	left	left	GLO	left	far	1	intact	intact	17bc9968-edac-4234-b3eb-c8487676c442_fps_avg_aud.mp4	0	0	0.915321	0	1	down	red	1	0.073	low
414	5	31	0	self	0.5	0.510842	green	1	up	up	GLO	right	far	1	intact	intact	98afb848-1bd2-46a6-89c7-32d60d6d1855_fps_avg_aud.mp4	0	0	0.708605	0	1	right	green	1	0.074	low
414	5	32	0	self	0.5	0.512196	blue	1	left	left	GLO	left	far	1	intact	intact	315e95e4-d9b0-4497-8992-fa67c8970229_fps_avg_aud.mp4	0	0	0.647598	0	1	up	blue	1	0.075	low
414	5	33	0	self	0.5	0.511065	red	1	left	left	GLO	left	close	1	intact	intact	de8d0a62-04ca-452a-a478-93877cedee98_fps_avg_aud.mp4	0	0	0.895878	0	1	down	red	1	0.076	low
414	5	34	0	self	0.5	0.510801	green	1	down	down	GLO	left	far	1	intact	intact	f22090a0-ec04-4dfd-99ca-7810b9650ec8_fps_avg_aud.mp4	0	0	0.640745	0	1	right	green	1	0.077	low
414	5	35	0	self	0.5	0.511992	green	1	left	left	GLO	left	far	1	intact	intact	Feb7_fps_avg_aud.mp4	0	0	0.441885	0	1	right	green	1	0.078	low
414	5	36	0	self	0.5	0.510857	blue	0	up	up	GLO	left	close	1	intact	intact	10110e03-827e-4196-8676-097b68a947cd_fps_avg_aud.mp4	0	0	0.581048	0	1	up	blue	1	0.079	low
414	5	37	0	self	0.5	0.510078	yellow	1	down	down	GLO	left	close	1	intact	intact	Oct31_fps_avg_aud.mp4	0	0	0.932004	0	1	left	yellow	1	0.08	low
414	5	38	0	self	0.5	0.510226	red	1	up	up	GLO	right	close	1	intact	intact	7ef90bcf-5b2a-4df5-b522-5d3f1e9badf1_fps_avg_aud.mp4	0	0	0.943901	0	1	down	red	1	0.081	low
414	5	39	0	self	0.5	0.510563	blue	0	up	up	GLO	left	close	1	intact	intact	5901a51f-f684-46c5-8a4f-abc4c05199d0_fps_avg_aud.mp4	0	0	1.08088	0	1	up	blue	1	0.082	low
414	5	40	0	self	0.5	0.511657	yellow	1	up	up	GLO	right	close	1	intact	intact	April_2015_(1)_fps_avg_aud.mp4	0	0	0.825542	0	1	left	yellow	1	0.083	low
414	5	41	0	self	0.5	0.512863	red	0	down	down	GLO	left	far	1	intact	intact	8c9efcf8-40ef-4975-90f5-9d2449140a05_fps_avg_aud.mp4	0	0	0.663403	0	1	down	red	1	0.084	low
414	5	42	0	self	0.5	0.510188	green	0	right	right	GLO	left	far	1	intact	intact	June_2016_(1)_fps_avg_aud.mp4	0	0	0.58206	0	1	right	green	1	0.085	low
414	5	43	0	self	0.5	0.509396	yellow	0	left	left	GLO	left	far	1	intact	intact	801d308b-7fe8-4a7f-8ad6-dafa42c9e3af_fps_avg_aud.mp4	0	0	0.648937	0	1	left	yellow	1	0.086	low
414	5	44	0	self	0.5	0.51154	green	1	left	left	GLO	left	close	1	intact	intact	339eedaf-ff90-439f-b68a-797258b27c12_fps_avg_aud.mp4	0	0	0.630361	0	1	right	green	1	0.087	low
414	5	45	0	self	0.5	0.512234	yellow	1	right	right	GLO	right	close	1	intact	intact	fd318c50-e133-4dc8-918b-b97094aebdf0_fps_avg_aud.mp4	0	0	0.497831	0	1	left	yellow	1	0.088	low
414	5	46	0	self	0.5	0.510318	blue	0	up	up	GLO	right	far	1	intact	intact	b03a76d5-df04-4f1c-a621-096b7428dc43_fps_avg_aud.mp4	0	0	0.81258	0	1	up	blue	1	0.089	low
414	5	47	0	self	0.5	0.510964	red	1	left	left	GLO	right	far	1	intact	intact	Jan20_fps_avg_aud.mp4	0	0	0.781232	0	1	down	red	1	0.09	low
414	5	48	0	self	0.5	0.512174	green	0	right	right	GLO	right	far	1	intact	intact	Oct1_fps_avg_aud.mp4	0	0	0.726368	0	1	right	green	1	0.091	low
414	5	49	0	self	0.5	NaN	green	1	up	up	GLO	none	far	1	intact	intact	21ca1f40-8184-4506-9096-1849a40e04e2_fps_avg_aud.mp4	0	0	NaN	NaN	NaN	none	none	NaN	0.091	low
414	5	50	0	self	0.5	NaN	yellow	1	up	up	GLO	none	far	1	intact	intact	abff9cfd-d67a-47e2-bc3f-92551e8414e2(1)_fps_avg_aud.mp4	0	0	NaN	NaN	NaN	none	none	NaN	0.091	low
414	5	51	0	self	0.5	NaN	yellow	0	left	left	GLO	none	close	1	intact	intact	63b4d034-af4a-4a03-8aa0-83818020367c_fps_avg_aud.mp4	0	0	NaN	NaN	NaN	none	none	NaN	0.091	low
414	5	52	0	self	0.5	NaN	red	0	down	down	GLO	none	far	1	intact	intact	e8c6c3f9-933c-4d98-9013-684e2acc2e1e_fps_avg_aud.mp4	0	0	NaN	NaN	NaN	none	none	NaN	0.091	low
414	5	53	0	self	0.5	NaN	blue	1	left	left	GLO	none	far	1	intact	intact	Jun17_fps_avg_aud.mp4	0	0	NaN	NaN	NaN	none	none	NaN	0.091	low
414	5	54	0	self	0.5	NaN	yellow	0	left	left	GLO	none	close	1	intact	intact	Oct7_fps_avg_aud.mp4	0	0	NaN	NaN	NaN	none	none	NaN	0.091	low
414	5	55	0	self	0.5	NaN	red	1	right	right	GLO	none	close	1	intact	intact	Feb14_fps_avg_aud.mp4	0	0	NaN	NaN	NaN	none	none	NaN	0.091	low
414	5	56	0	self	0.5	NaN	yellow	0	left	left	GLO	none	far	1	intact	intact	919b74e0-dd30-4685-b063-8556e1e10c55_fps_avg_aud.mp4	0	0	NaN	NaN	NaN	none	none	NaN	0.091	low
414	5	57	0	self	0.5	NaN	red	1	left	left	GLO	none	far	1	intact	intact	Dec23_fps_avg_aud.mp4	0	0	NaN	NaN	NaN	none	none	NaN	0.091	low
414	5	58	0	self	0.5	NaN	red	1	left	left	GLO	none	far	1	intact	intact	Dec12_fps_avg_aud.mp4	0	0	NaN	NaN	NaN	none	none	NaN	0.091	low
414	5	59	0	self	0.5	NaN	red	1	up	up	GLO	none	close	1	intact	intact	Nov10_fps_avg_aud.mp4	0	0	NaN	NaN	NaN	none	none	NaN	0.091	low
414	5	60	0	self	0.5	NaN	blue	1	left	left	GLO	none	far	1	intact	intact	32b66b3c-9f3a-4856-9278-87ca4048d48e_fps_avg_aud.mp4	0	0	NaN	NaN	NaN	none	none	NaN	0.091	low
414	5	61	0	self	0.5	NaN	green	1	left	left	GLO	none	close	1	intact	intact	0ab2bdff-924c-46d2-b610-671d6f4f673e_fps_avg_aud.mp4	0	0	NaN	NaN	NaN	none	none	NaN	0.091	low
414	5	62	0	self	0.5	NaN	green	0	right	right	GLO	none	close	1	intact	intact	359d82dd-3d4c-4029-a89b-66422745c056_fps_avg_aud.mp4	0	0	NaN	NaN	NaN	none	none	NaN	0.091	low
414	5	63	0	self	0.5	NaN	yellow	0	left	left	GLO	none	far	1	intact	intact	May28_fps_avg_aud.mp4	0	0	NaN	NaN	NaN	none	none	NaN	0.091	low
414	5	64	0	self	0.5	NaN	green	0	right	right	GLO	none	far	1	intact	intact	5b49bfdf-720d-437c-bb4f-da8fd9a14bdf_fps_avg_aud.mp4	0	0	NaN	NaN	NaN	none	none	NaN	0.091	low
414	5	65	0	self	0.5	NaN	blue	0	up	up	GLO	none	close	1	intact	intact	d021cb9c-36bf-48fb-9474-23511a956f6a_fps_avg_aud.mp4	0	0	NaN	NaN	NaN	none	none	NaN	0.091	low
414	5	66	0	self	0.5	NaN	red	0	down	down	GLO	none	far	1	intact	intact	May_30_2016_fps_avg_aud.mp4	0	0	NaN	NaN	NaN	none	none	NaN	0.091	low
414	5	67	0	self	0.5	NaN	green	0	right	right	GLO	none	far	1	intact	intact	Feb8_fps_avg_aud.mp4	0	0	NaN	NaN	NaN	none	none	NaN	0.091	low
414	5	68	0	self	0.5	NaN	blue	0	up	up	GLO	none	close	1	intact	intact	ae455cc0-190e-4a3d-907c-79f241176900_fps_avg_aud.mp4	0	0	NaN	NaN	NaN	none	none	NaN	0.091	low
414	5	69	0	self	0.5	NaN	yellow	0	left	left	GLO	none	close	1	intact	intact	Feb11_fps_avg_aud.mp4	0	0	NaN	NaN	NaN	none	none	NaN	0.091	low
414	5	70	0	self	0.5	NaN	yellow	1	down	down	GLO	none	far	1	intact	intact	Jun8_fps_avg_aud.mp4	0	0	NaN	NaN	NaN	none	none	NaN	0.091	low
414	5	71	0	self	0.5	NaN	blue	0	up	up	GLO	none	far	1	intact	intact	15914fca-fb16-47ce-929a-161ca2c1fdf7_fps_avg_aud.mp4	0	0	NaN	NaN	NaN	none	none	NaN	0.091	low
414	5	72	0	self	0.5	NaN	red	1	up	up	GLO	none	far	1	intact	intact	Aug17_fps_avg_aud.mp4	0	0	NaN	NaN	NaN	none	none	NaN	0.091	low
414	5	73	0	self	0.5	NaN	blue	1	right	right	GLO	none	far	1	intact	intact	1559c6cc-6a1d-4309-9bdf-810832c277d8_fps_avg_aud.mp4	0	0	NaN	NaN	NaN	none	none	NaN	0.091	low
414	5	74	0	self	0.5	NaN	yellow	1	right	right	GLO	none	far	1	intact	intact	db8b6c6f-c114-4747-8437-3bfc1210df49_fps_avg_aud.mp4	0	0	NaN	NaN	NaN	none	none	NaN	0.091	low
414	5	75	0	self	0.5	NaN	blue	1	left	left	GLO	none	close	1	intact	intact	6d873e1d-8ad7-4688-a181-c3322982e4a6_fps_avg_aud.mp4	0	0	NaN	NaN	NaN	none	none	NaN	0.091	low
414	5	76	0	self	0.5	NaN	yellow	0	left	left	GLO	none	close	1	intact	intact	ea6675d4-3684-48c3-9bd0-c32d38c48c9e_fps_avg_aud.mp4	0	0	NaN	NaN	NaN	none	none	NaN	0.091	low
414	5	77	0	self	0.5	NaN	green	1	up	up	GLO	none	far	1	intact	intact	may_25_2015_fps_avg_aud.mp4	0	0	NaN	NaN	NaN	none	none	NaN	0.091	low
414	5	78	0	self	0.5	NaN	green	1	down	down	GLO	none	close	1	intact	intact	July2_fps_avg_aud.mp4	0	0	NaN	NaN	NaN	none	none	NaN	0.091	low
414	5	79	0	self	0.5	NaN	blue	0	up	up	GLO	none	far	1	intact	intact	Jun1_fps_avg_aud.mp4	0	0	NaN	NaN	NaN	none	none	NaN	0.091	low
414	5	80	0	self	0.5	NaN	blue	1	down	down	GLO	none	far	1	intact	intact	Sep27_fps_avg_aud.mp4	0	0	NaN	NaN	NaN	none	none	NaN	0.091	low
414	5	81	0	self	0.5	NaN	yellow	0	left	left	GLO	none	close	1	intact	intact	8ef19348-df54-46b9-9672-f236fb24f042_fps_avg_aud.mp4	0	0	NaN	NaN	NaN	none	none	NaN	0.091	low
414	5	82	0	self	0.5	NaN	red	1	right	right	GLO	none	far	1	intact	intact	74863169-b4eb-4472-bb27-c309a4fed0aa_fps_avg_aud.mp4	0	0	NaN	NaN	NaN	none	none	NaN	0.091	low
414	5	83	0	self	0.5	NaN	green	0	right	right	GLO	none	close	1	intact	intact	ed5c9b46-1903-43ac-bc9d-4681004c3550_fps_avg_aud.mp4	0	0	NaN	NaN	NaN	none	none	NaN	0.091	low
414	5	84	0	self	0.5	NaN	red	0	down	down	GLO	none	close	1	intact	intact	a9843691-e4cb-4c12-aa70-47f2024c5698_fps_avg_aud.mp4	0	0	NaN	NaN	NaN	none	none	NaN	0.091	low
414	5	85	0	self	0.5	NaN	yellow	1	down	down	GLO	none	close	1	intact	intact	0634b486-cb5f-4c95-88ac-759458166474_fps_avg_aud.mp4	0	0	NaN	NaN	NaN	none	none	NaN	0.091	low
414	5	86	0	self	0.5	NaN	blue	1	left	left	GLO	none	close	1	intact	intact	80bae024-90b7-4369-88be-93c1000385ef_fps_avg_aud.mp4	0	0	NaN	NaN	NaN	none	none	NaN	0.091	low
414	5	87	0	self	0.5	NaN	red	0	down	down	GLO	none	close	1	intact	intact	August_2016_fps_avg_aud.mp4	0	0	NaN	NaN	NaN	none	none	NaN	0.091	low
414	5	88	0	self	0.5	NaN	blue	0	up	up	GLO	none	far	1	intact	intact	54741aa9-fdb7-4546-b60b-078b0914ddd1_fps_avg_aud.mp4	0	0	NaN	NaN	NaN	none	none	NaN	0.091	low
414	5	89	0	self	0.5	NaN	red	1	up	up	GLO	none	close	1	intact	intact	05c4b895-8d51-48d4-93fd-4e37519019a0_fps_avg_aud.mp4	0	0	NaN	NaN	NaN	none	none	NaN	0.091	low
414	5	90	0	self	0.5	NaN	green	1	down	down	GLO	none	close	1	intact	intact	f641fc6b-8728-47c9-b90c-11b1af7f196e_fps_avg_aud.mp4	0	0	NaN	NaN	NaN	none	none	NaN	0.091	low
414	5	91	0	self	0.5	NaN	yellow	0	left	left	GLO	none	close	1	intact	intact	July21_fps_avg_aud.mp4	0	0	NaN	NaN	NaN	none	none	NaN	0.091	low
414	5	92	0	self	0.5	NaN	blue	0	up	up	GLO	none	far	1	intact	intact	533b0238-357b-409c-8d86-25285970eb98_fps_avg_aud.mp4	0	0	NaN	NaN	NaN	none	none	NaN	0.091	low
414	5	93	0	self	0.5	NaN	blue	0	up	up	GLO	none	far	1	intact	intact	Jun20_fps_avg_aud.mp4	0	0	NaN	NaN	NaN	none	none	NaN	0.091	low
414	6	1	0	self	0.5	0.516151	yellow	1	up	up	GLO	right	far	1	intact	intact	March25_2016_fps_avg_aud.mp4	0	0	0.739336	0	1	left	yellow	1	0.101	high
414	6	2	0	self	0.5	0.51103	green	1	down	down	GLO	right	close	1	intact	intact	Oct31_fps_avg_aud.mp4	0	0	0.415	0	1	right	green	1	0.111	high
414	6	3	0	self	0.5	0.509357	green	0	right	right	GLO	left	far	1	intact	intact	23c8ed33-90c4-4605-8822-6270c3a6ca34_fps_avg_aud.mp4	0	0	0.531636	0	1	right	green	1	0.121	high
414	6	4	0	self	0.5	0.513305	blue	0	up	up	GLO	right	far	1	intact	intact	089179b5-68cb-4167-89fa-52f69549f728_fps_avg_aud.mp4	0	0	1.2963	0	1	up	blue	1	0.131	high
414	6	5	0	self	0.5	0.511326	blue	1	left	left	GLO	left	far	1	intact	intact	639855c9-f7b0-4d31-8ca6-c12b36f03058_fps_avg_aud.mp4	0	0	0.515079	0	1	up	blue	1	0.141	high
414	6	6	0	self	0.5	0.510771	blue	0	up	up	GLO	left	far	1	intact	intact	d4f25bdd-9060-452d-8b9a-299b4d79a939_fps_avg_aud.mp4	0	0	0.480937	0	1	up	blue	1	0.151	high
414	6	7	0	self	0.5	0.512692	green	1	down	down	GLO	left	far	1	intact	intact	August_2,_2015_fps_avg_aud.mp4	0	0	0.479726	0	1	right	green	1	0.161	high
414	6	8	0	self	0.5	0.511454	red	1	right	right	GLO	right	far	1	intact	intact	bb75a9e7-75e9-4641-8e0c-ecaabf7a7e69(1)_fps_avg_aud.mp4	0	0	0.541407	0	1	down	red	1	0.171	high
414	6	9	0	self	0.5	0.508846	yellow	1	up	up	GLO	left	close	1	intact	intact	fc42fffc-beb2-426f-85f8-fe9f11671486_fps_avg_aud.mp4	0	0	0.464593	0	1	left	yellow	1	0.181	high
414	6	10	0	self	0.5	0.512002	yellow	0	left	left	GLO	left	close	1	intact	intact	b8f7a383-ba3e-49db-977d-18cbd8702864_fps_avg_aud.mp4	0	0	0.597209	0	1	left	yellow	1	0.191	high
414	6	11	0	self	0.5	0.511164	green	0	right	right	GLO	right	close	1	intact	intact	May_30_2016_fps_avg_aud.mp4	0	0	0.562001	0	1	right	green	1	0.201	high
414	6	12	0	self	0.5	0.513268	yellow	0	left	left	GLO	right	close	1	intact	intact	f08bb9b7-0409-482c-9084-de15481ab2b3_fps_avg_aud.mp4	0	0	0.680572	0	1	left	yellow	1	0.211	high
414	6	13	0	self	0.5	0.511055	yellow	1	right	right	GLO	left	close	1	intact	intact	1b336470-7a10-4cc7-aee4-3a5e6e6e551e_fps_avg_aud.mp4	0	0	0.732319	0	1	left	yellow	1	0.221	high
414	6	14	0	self	0.5	0.512902	green	0	right	right	GLO	left	close	1	intact	intact	bfb38b58-a56a-427a-a233-3b6663beed7c_fps_avg_aud.mp4	0	0	0.663997	0	1	right	green	1	0.231	high
414	6	15	0	self	0.5	0.50901	yellow	1	right	right	GLO	left	far	1	intact	intact	December_2015_fps_avg_aud.mp4	0	0	0.515389	0	1	right	green	0	0.221	high
414	6	16	0	self	0.5	0.509539	green	0	right	right	GLO	left	close	1	intact	intact	Aug11_fps_avg_aud.mp4	0	0	1.02914	0	1	right	green	1	0.231	high
414	6	17	0	self	0.5	0.512099	yellow	0	left	left	GLO	right	far	1	intact	intact	Apr30_fps_avg_aud.mp4	0	0	0.531173	0	1	left	yellow	1	0.241	high
414	6	18	0	self	0.5	0.51079	red	0	down	down	GLO	left	close	1	intact	intact	May_2016_(1)_fps_avg_aud.mp4	0	0	0.708591	0	1	down	red	1	0.251	high
414	6	19	0	self	0.5	0.51155	red	1	right	right	GLO	right	far	1	intact	intact	647890e0-5689-43cf-86ab-b37e61076130_fps_avg_aud.mp4	0	0	0.565568	0	1	down	red	1	0.261	high
414	6	20	0	self	0.5	0.513074	red	1	up	up	GLO	left	close	1	intact	intact	Mar25_fps_avg_aud.mp4	0	0	0.43149	0	1	down	red	1	0.271	high
414	6	21	0	self	0.5	0.508899	yellow	1	up	up	GLO	left	close	1	intact	intact	October_8_2016_fps_avg_aud.mp4	0	0	0.698061	0	1	left	yellow	1	0.281	high
414	6	22	0	self	0.5	0.511329	blue	0	up	up	GLO	left	close	1	intact	intact	Jan20_fps_avg_aud.mp4	0	0	0.687917	0	1	up	blue	1	0.291	high
414	6	23	0	self	0.5	0.511453	red	1	up	up	GLO	right	far	1	intact	intact	801d308b-7fe8-4a7f-8ad6-dafa42c9e3af_fps_avg_aud.mp4	0	0	0.807007	0	1	down	red	1	0.301	high
414	6	24	0	self	0.5	0.510671	blue	0	up	up	GLO	right	far	1	intact	intact	0ee64e11-96b9-4476-a12c-a99a4b58a965_fps_avg_aud.mp4	0	0	0.896902	0	1	up	blue	1	0.311	high
414	6	25	0	self	0.5	0.512116	green	0	right	right	GLO	left	close	1	intact	intact	Aug12_fps_avg_aud.mp4	0	0	0.547333	0	1	right	green	1	0.321	high
414	6	26	0	self	0.5	0.508056	blue	1	right	right	GLO	right	close	1	intact	intact	b1dabac3-204f-4571-b892-69eb87e805d0_fps_avg_aud.mp4	0	0	1.07156	0	1	up	blue	1	0.331	high
414	6	27	0	self	0.5	0.511602	red	1	right	right	GLO	left	far	1	intact	intact	August_2016_fps_avg_aud.mp4	0	0	0.746821	0	1	down	red	1	0.341	high
414	6	28	0	self	0.5	0.512128	red	0	down	down	GLO	right	close	1	intact	intact	April_2015_(1)_fps_avg_aud.mp4	0	0	0.44883	0	1	down	red	1	0.351	high
414	6	29	0	self	0.5	0.511003	green	1	down	down	GLO	right	close	1	intact	intact	c1a7aae7-8c3e-4488-9566-07a14f982e35_fps_avg_aud.mp4	0	0	0.538958	0	1	right	green	1	0.361	high
414	6	30	0	self	0.5	0.510878	green	0	right	right	GLO	left	close	1	intact	intact	32b66b3c-9f3a-4856-9278-87ca4048d48e_fps_avg_aud.mp4	0	0	0.715064	0	1	right	green	1	0.371	high
414	6	31	0	self	0.5	0.510899	green	0	right	right	GLO	right	far	1	intact	intact	May11_fps_avg_aud.mp4	0	0	0.479703	0	1	right	green	1	0.381	high
414	6	32	0	self	0.5	0.510759	yellow	1	down	down	GLO	left	far	1	intact	intact	21ca1f40-8184-4506-9096-1849a40e04e2_fps_avg_aud.mp4	0	0	0.564919	0	1	left	yellow	1	0.391	high
414	6	33	0	self	0.5	0.511143	green	1	up	up	GLO	right	far	1	intact	intact	Dec25_fps_avg_aud.mp4	0	0	0.711863	0	1	right	green	1	0.401	high
414	6	34	0	self	0.5	0.511388	yellow	1	right	right	GLO	right	far	1	intact	intact	334b06e5-5a99-4c23-b82f-0b02017f9d2e_fps_avg_aud.mp4	0	0	0.964546	0	1	left	yellow	1	0.411	high
414	6	35	0	self	0.5	0.512923	blue	0	up	up	GLO	left	far	1	intact	intact	5f534c39-dfe8-4a8d-a678-c406bcf9154d_fps_avg_aud.mp4	0	0	0.846006	0	1	up	blue	1	0.421	high
414	6	36	0	self	0.5	0.51242	red	1	right	right	GLO	left	far	1	intact	intact	Jan11_fps_avg_aud.mp4	0	0	0.814189	0	1	down	red	1	0.431	high
414	6	37	0	self	0.5	0.512093	red	0	down	down	GLO	right	far	1	intact	intact	05c4b895-8d51-48d4-93fd-4e37519019a0_fps_avg_aud.mp4	0	0	0.547819	0	1	down	red	1	0.441	high
414	6	38	0	self	0.5	0.510587	red	1	right	right	GLO	left	far	1	intact	intact	226bfd42-14d0-45a1-82ba-233f4ddec70a_fps_avg_aud.mp4	0	0	0.431426	0	1	down	red	1	0.451	high
414	6	39	0	self	0.5	0.50982	red	0	down	down	GLO	left	far	1	intact	intact	4f243f72-5a08-4b19-aa43-2448c9f0545d_fps_avg_aud.mp4	0	0	0.414232	0	1	down	red	1	0.461	high
414	6	40	0	self	0.5	0.51049	blue	0	up	up	GLO	right	far	1	intact	intact	15914fca-fb16-47ce-929a-161ca2c1fdf7_fps_avg_aud.mp4	0	0	0.714827	0	1	up	blue	1	0.471	high
414	6	41	0	self	0.5	0.508566	yellow	0	left	left	GLO	right	far	1	intact	intact	05a4f0ad-5d14-4bd5-8c2b-7db284b369ce_fps_avg_aud.mp4	0	0	0.5793	0	1	left	yellow	1	0.481	high
414	6	42	0	self	0.5	0.510293	yellow	1	down	down	GLO	left	close	1	intact	intact	8b186ca3-65a3-4740-8611-404063ae0ec7_fps_avg_aud.mp4	0	0	0.67926	0	1	left	yellow	1	0.491	high
414	6	43	0	self	0.5	0.510948	blue	1	right	right	GLO	left	far	1	intact	intact	483a899a-71a0-49cf-b2ba-f13374d6b0a8_fps_avg_aud.mp4	0	0	0.662233	0	1	up	blue	1	0.501	high
414	6	44	0	self	0.5	0.512273	green	1	left	left	GLO	left	close	1	intact	intact	October_14_2016_fps_avg_aud.mp4	0	0	0.631646	0	1	right	green	1	0.511	high
414	6	45	0	self	0.5	0.510614	green	0	right	right	GLO	left	far	1	intact	intact	491c6b26-e39a-4650-ae90-8d66fc596b16_fps_avg_aud.mp4	0	0	0.530302	0	1	right	green	1	0.521	high
414	6	46	0	self	0.5	0.510616	red	0	down	down	GLO	right	close	1	intact	intact	db8b6c6f-c114-4747-8437-3bfc1210df49_fps_avg_aud.mp4	0	0	0.593087	0	1	down	red	1	0.531	high
414	6	47	0	self	0.5	0.512672	yellow	0	left	left	GLO	right	far	1	intact	intact	May10_fps_avg_aud.mp4	0	0	0.725365	0	1	left	yellow	1	0.541	high
414	6	48	0	self	0.5	0.511327	yellow	1	right	right	GLO	left	close	1	intact	intact	ede4a096-21dc-4ed4-9b28-6df0a7f6fe6b_fps_avg_aud.mp4	0	0	0.814834	0	1	left	yellow	1	0.551	high
414	6	49	0	self	0.5	0.511544	blue	0	up	up	GLO	right	close	1	intact	intact	b5bcd3a2-267e-4413-b730-c3121b8457ab_fps_avg_aud.mp4	0	0	0.671228	0	1	up	blue	1	0.561	high
414	6	50	0	self	0.5	NaN	red	1	up	up	GLO	none	close	1	intact	intact	may_2015_fps_avg_aud.mp4	0	0	NaN	NaN	NaN	none	none	NaN	0.561	high
414	6	51	0	self	0.5	NaN	yellow	0	left	left	GLO	none	far	1	intact	intact	Jun30_fps_avg_aud.mp4	0	0	NaN	NaN	NaN	none	none	NaN	0.561	high
414	6	52	0	self	0.5	NaN	blue	0	up	up	GLO	none	far	1	intact	intact	Nov28_fps_avg_aud.mp4	0	0	NaN	NaN	NaN	none	none	NaN	0.561	high
414	6	53	0	self	0.5	NaN	blue	1	left	left	GLO	none	close	1	intact	intact	0602c0a8-082a-4bca-9f5b-70795017698f_fps_avg_aud.mp4	0	0	NaN	NaN	NaN	none	none	NaN	0.561	high
414	6	54	0	self	0.5	NaN	yellow	1	right	right	GLO	none	far	1	intact	intact	4492b756-14ac-4694-8c38-fa7503b864e1_fps_avg_aud.mp4	0	0	NaN	NaN	NaN	none	none	NaN	0.561	high
414	6	55	0	self	0.5	NaN	blue	0	up	up	GLO	none	far	1	intact	intact	May_18_2016_fps_avg_aud.mp4	0	0	NaN	NaN	NaN	none	none	NaN	0.561	high
414	6	56	0	self	0.5	NaN	red	0	down	down	GLO	none	close	1	intact	intact	e3ba147b-ae8e-4b27-9412-577f6cfd64f4_fps_avg_aud.mp4	0	0	NaN	NaN	NaN	none	none	NaN	0.561	high
414	6	57	0	self	0.5	NaN	red	1	up	up	GLO	none	far	1	intact	intact	Oct1_fps_avg_aud.mp4	0	0	NaN	NaN	NaN	none	none	NaN	0.561	high
414	6	58	0	self	0.5	NaN	green	1	down	down	GLO	none	far	1	intact	intact	14b4b9c3-9408-4ec8-bd84-8e92a4405645_fps_avg_aud.mp4	0	0	NaN	NaN	NaN	none	none	NaN	0.561	high
414	6	59	0	self	0.5	NaN	yellow	0	left	left	GLO	none	close	1	intact	intact	533b0238-357b-409c-8d86-25285970eb98_fps_avg_aud.mp4	0	0	NaN	NaN	NaN	none	none	NaN	0.561	high
414	6	60	0	self	0.5	NaN	green	0	right	right	GLO	none	far	1	intact	intact	10110e03-827e-4196-8676-097b68a947cd_fps_avg_aud.mp4	0	0	NaN	NaN	NaN	none	none	NaN	0.561	high
414	6	61	0	self	0.5	NaN	red	0	down	down	GLO	none	close	1	intact	intact	b1ade3a7-f9fd-4229-8a80-df334c184531_fps_avg_aud.mp4	0	0	NaN	NaN	NaN	none	none	NaN	0.561	high
414	6	62	0	self	0.5	NaN	blue	1	left	left	GLO	none	close	1	intact	intact	April_2015_fps_avg_aud.mp4	0	0	NaN	NaN	NaN	none	none	NaN	0.561	high
414	6	63	0	self	0.5	NaN	yellow	0	left	left	GLO	none	close	1	intact	intact	January_4_2016_fps_avg_aud.mp4	0	0	NaN	NaN	NaN	none	none	NaN	0.561	high
414	6	64	0	self	0.5	NaN	green	1	up	up	GLO	none	far	1	intact	intact	d908683d-e7f6-43aa-ac1d-27222b281fc0_fps_avg_aud.mp4	0	0	NaN	NaN	NaN	none	none	NaN	0.561	high
414	6	65	0	self	0.5	NaN	blue	0	up	up	GLO	none	close	1	intact	intact	0096623f-bd93-48df-96f9-85a0a749a586_fps_avg_aud.mp4	0	0	NaN	NaN	NaN	none	none	NaN	0.561	high
414	6	66	0	self	0.5	NaN	red	1	left	left	GLO	none	far	1	intact	intact	38a0ff6f-f976-4235-af7e-49859d376c46_fps_avg_aud.mp4	0	0	NaN	NaN	NaN	none	none	NaN	0.561	high
414	6	67	0	self	0.5	NaN	red	1	right	right	GLO	none	close	1	intact	intact	Jun5_fps_avg_aud.mp4	0	0	NaN	NaN	NaN	none	none	NaN	0.561	high
414	6	68	0	self	0.5	NaN	green	0	right	right	GLO	none	far	1	intact	intact	Dec4_fps_avg_aud.mp4	0	0	NaN	NaN	NaN	none	none	NaN	0.561	high
414	6	69	0	self	0.5	NaN	red	1	up	up	GLO	none	close	1	intact	intact	January_2016_(3)_fps_avg_aud.mp4	0	0	NaN	NaN	NaN	none	none	NaN	0.561	high
414	6	70	0	self	0.5	NaN	green	0	right	right	GLO	none	far	1	intact	intact	612a0f1b-c1f3-4c75-bb69-404849fe6ff8_fps_avg_aud.mp4	0	0	NaN	NaN	NaN	none	none	NaN	0.561	high
414	6	71	0	self	0.5	NaN	blue	0	up	up	GLO	none	close	1	intact	intact	f1caa1d5-1230-4918-b000-58763883bff3_fps_avg_aud.mp4	0	0	NaN	NaN	NaN	none	none	NaN	0.561	high
414	6	72	0	self	0.5	NaN	green	0	right	right	GLO	none	far	1	intact	intact	7cff1761-7eb4-4352-9fd6-437bff370f37_fps_avg_aud.mp4	0	0	NaN	NaN	NaN	none	none	NaN	0.561	high
414	6	73	0	self	0.5	NaN	red	0	down	down	GLO	none	close	1	intact	intact	ea6675d4-3684-48c3-9bd0-c32d38c48c9e_fps_avg_aud.mp4	0	0	NaN	NaN	NaN	none	none	NaN	0.561	high
414	6	74	0	self	0.5	NaN	green	1	down	down	GLO	none	close	1	intact	intact	ed9842b1-ccb5-4e6e-8fcb-d81eb3d6f297_fps_avg_aud.mp4	0	0	NaN	NaN	NaN	none	none	NaN	0.561	high
414	6	75	0	self	0.5	NaN	blue	1	right	right	GLO	none	close	1	intact	intact	74863169-b4eb-4472-bb27-c309a4fed0aa_fps_avg_aud.mp4	0	0	NaN	NaN	NaN	none	none	NaN	0.561	high
414	6	76	0	self	0.5	NaN	red	1	left	left	GLO	none	far	1	intact	intact	Dec1_fps_avg_aud.mp4	0	0	NaN	NaN	NaN	none	none	NaN	0.561	high
414	6	77	0	self	0.5	NaN	green	1	up	up	GLO	none	far	1	intact	intact	01790276-7d56-4063-9522-da49270e2a6b_fps_avg_aud.mp4	0	0	NaN	NaN	NaN	none	none	NaN	0.561	high
414	6	78	0	self	0.5	NaN	blue	0	up	up	GLO	none	far	1	intact	intact	b23c9ea6-adb6-492c-965f-16af3f7801e9_fps_avg_aud.mp4	0	0	NaN	NaN	NaN	none	none	NaN	0.561	high
414	6	79	0	self	0.5	NaN	yellow	0	left	left	GLO	none	far	1	intact	intact	01d130af-ffff-4cd1-b39d-35c47d44cd3d_fps_avg_aud.mp4	0	0	NaN	NaN	NaN	none	none	NaN	0.561	high
414	6	80	0	self	0.5	NaN	green	0	right	right	GLO	none	far	1	intact	intact	f8f9d4f8-9aad-49b0-8b1c-ddf47286d601_fps_avg_aud.mp4	0	0	NaN	NaN	NaN	none	none	NaN	0.561	high
414	6	81	0	self	0.5	NaN	yellow	1	right	right	GLO	none	far	1	intact	intact	Feb11_fps_avg_aud.mp4	0	0	NaN	NaN	NaN	none	none	NaN	0.561	high
414	6	82	0	self	0.5	NaN	red	1	up	up	GLO	none	far	1	intact	intact	June_2016_fps_avg_aud.mp4	0	0	NaN	NaN	NaN	none	none	NaN	0.561	high
414	6	83	0	self	0.5	NaN	green	0	right	right	GLO	none	far	1	intact	intact	e4815a42-3a54-463e-aeba-1230af20106d_fps_avg_aud.mp4	0	0	NaN	NaN	NaN	none	none	NaN	0.561	high
414	6	84	0	self	0.5	NaN	blue	1	down	down	GLO	none	close	1	intact	intact	jun13_fps_avg_aud.mp4	0	0	NaN	NaN	NaN	none	none	NaN	0.561	high
414	6	85	0	self	0.5	NaN	red	0	down	down	GLO	none	close	1	intact	intact	a525e336-0ec0-4048-92cf-487e44952f5c_fps_avg_aud.mp4	0	0	NaN	NaN	NaN	none	none	NaN	0.561	high
414	6	86	0	self	0.5	NaN	yellow	1	up	up	GLO	none	far	1	intact	intact	april_23_2015_fps_avg_aud.mp4	0	0	NaN	NaN	NaN	none	none	NaN	0.561	high
414	6	87	0	self	0.5	NaN	yellow	1	down	down	GLO	none	far	1	intact	intact	Nov30_fps_avg_aud.mp4	0	0	NaN	NaN	NaN	none	none	NaN	0.561	high
414	6	88	0	self	0.5	NaN	green	0	right	right	GLO	none	close	1	intact	intact	e3992607-d25b-430c-bd18-12cb4a6d1b28_fps_avg_aud.mp4	0	0	NaN	NaN	NaN	none	none	NaN	0.561	high
414	6	89	0	self	0.5	NaN	blue	0	up	up	GLO	none	far	1	intact	intact	Sep22_fps_avg_aud.mp4	0	0	NaN	NaN	NaN	none	none	NaN	0.561	high
414	6	90	0	self	0.5	NaN	blue	0	up	up	GLO	none	far	1	intact	intact	Dec11_fps_avg_aud.mp4	0	0	NaN	NaN	NaN	none	none	NaN	0.561	high
414	6	91	0	self	0.5	NaN	blue	1	right	right	GLO	none	far	1	intact	intact	Mar30_fps_avg_aud.mp4	0	0	NaN	NaN	NaN	none	none	NaN	0.561	high
414	6	92	0	self	0.5	NaN	red	1	up	up	GLO	none	close	1	intact	intact	Aug17_fps_avg_aud.mp4	0	0	NaN	NaN	NaN	none	none	NaN	0.561	high
414	6	93	0	self	0.5	NaN	green	1	down	down	GLO	none	far	1	intact	intact	9874ea15-f388-4d7d-ae5d-51013a69fee3_fps_avg_aud.mp4	0	0	NaN	NaN	NaN	none	none	NaN	0.561	high
414	7	1	0	auto	0.5	0.508763	green	1	up	up	GLO	left	close	0	intact	none	none	0	0	1.87272	0	1	right	green	1	0.571	high
414	7	2	0	auto	0.5	0.509642	green	0	right	right	GLO	right	far	1	intact	intact	d474c6db-95a4-4753-b361-ee940450cd55_fps_avg_aud.mp4	1	0	0.615036	0	1	right	green	1	0.581	high
414	7	3	0	auto	0.5	0.51043	green	1	up	up	GLO	right	close	1	intact	intact	Jun8_fps_avg_aud.mp4	1	0	0.505019	0	1	right	green	1	0.591	high
