ID	Block	Trials	Practice	VideoStart	ITI	ITI_measured	Color	Conflict	Global	Local	Task	Video_pos	Video_dist	Video_present	Video_cat_cond	Video_cat	Video	VideoPlayed	VideoCheck	RT	DT	Visits	KeyPress	KeyColor	Correct	Reward	RewardCond
415	1	1	1	none	1.5	1.48769	red	0	down	down	GLO	right	far	0	intact	none	none	0	0	1.55398	0	1	down	red	1	0	0
415	1	2	1	none	1.5	1.51277	green	1	up	up	GLO	left	close	0	intact	none	none	0	0	1.79463	0	1	right	green	1	0	0
415	1	3	1	none	1.5	1.51356	green	1	left	left	GLO	right	far	0	intact	none	none	0	0	0.805178	0	1	right	green	1	0	0
415	1	4	1	none	1.5	1.51106	blue	0	up	up	GLO	right	close	0	intact	none	none	0	0	1.01888	0	1	up	blue	1	0	0
415	1	5	1	none	1.5	1.51172	yellow	1	up	up	GLO	right	close	0	intact	none	none	0	0	0.65115	0	1	left	yellow	1	0	0
415	1	6	1	none	1.5	1.51197	red	0	down	down	GLO	left	close	0	intact	none	none	0	0	0.606053	0	1	down	red	1	0	0
415	1	7	1	none	1.5	1.51374	yellow	0	left	left	GLO	left	far	0	intact	none	none	0	0	1.33843	0	1	left	yellow	1	0	0
415	1	8	1	none	1.5	1.51356	yellow	0	left	left	GLO	left	close	0	intact	none	none	0	0	0.496973	0	1	left	yellow	1	0	0
415	1	9	1	none	1.5	1.51357	blue	0	up	up	GLO	left	far	0	intact	none	none	0	0	1.01084	0	1	up	blue	1	0	0
415	1	10	1	none	1.5	1.51437	green	1	down	down	GLO	left	close	0	intact	none	none	0	0	0.996384	0	1	right	green	1	0	0
415	1	11	1	none	1.5	1.51457	green	0	right	right	GLO	right	close	0	intact	none	none	0	0	0.529007	0	1	right	green	1	0	0
415	1	12	1	none	1.5	1.51518	red	0	down	down	GLO	left	far	0	intact	none	none	0	0	1.27671	0	1	down	red	1	0	0
415	1	13	1	none	1.5	1.51522	blue	0	up	up	GLO	right	close	0	intact	none	none	0	0	0.564376	0	1	up	blue	1	0	0
415	1	14	1	none	1.5	1.51396	blue	0	up	up	GLO	left	far	0	intact	none	none	0	0	0.582168	0	1	up	blue	1	0	0
415	1	15	1	none	1.5	1.51387	yellow	1	up	up	GLO	right	far	0	intact	none	none	0	0	0.799103	0	1	left	yellow	1	0	0
415	1	16	1	none	1.5	1.51396	blue	0	up	up	GLO	left	far	0	intact	none	none	0	0	0.563967	0	1	up	blue	1	0	0
415	1	17	1	none	1.5	1.51297	red	0	down	down	GLO	right	far	0	intact	none	none	0	0	0.990602	0	1	down	red	1	0	0
415	1	18	1	none	1.5	1.51352	yellow	1	right	right	GLO	right	close	0	intact	none	none	0	0	0.681841	0	1	left	yellow	1	0	0
415	1	19	1	none	1.5	1.51232	red	0	down	down	GLO	left	close	0	intact	none	none	0	0	0.747986	0	1	down	red	1	0	0
415	1	20	1	none	1.5	1.51223	yellow	0	left	left	GLO	right	close	0	intact	none	none	0	0	0.482579	0	1	left	yellow	1	0	0
415	1	21	1	none	1.5	1.51334	blue	1	left	left	GLO	left	close	0	intact	none	none	0	0	0.813445	0	1	up	blue	1	0	0
415	1	22	1	none	1.5	1.51322	yellow	0	left	left	GLO	left	close	0	intact	none	none	0	0	0.6988	0	1	left	yellow	1	0	0
415	1	23	1	none	1.5	1.51461	yellow	1	right	right	GLO	right	far	0	intact	none	none	0	0	0.63814	0	1	left	yellow	1	0	0
415	1	24	1	none	1.5	1.51432	green	1	up	up	GLO	right	far	0	intact	none	none	0	0	0.824462	0	1	right	green	1	0	0
415	1	25	1	none	1.5	1.51313	yellow	0	left	left	GLO	left	close	0	intact	none	none	0	0	0.599148	0	1	left	yellow	1	0	0
415	1	26	1	none	1.5	1.5142	blue	0	up	up	GLO	right	far	0	intact	none	none	0	0	0.515059	0	1	up	blue	1	0	0
415	1	27	1	none	1.5	1.51285	yellow	0	left	left	GLO	left	far	0	intact	none	none	0	0	0.510499	0	1	left	yellow	1	0	0
415	1	28	1	none	1.5	1.51374	blue	1	down	down	GLO	left	close	0	intact	none	none	0	0	0.44677	0	1	down	red	0	0	0
415	1	29	1	none	1.5	1.51406	yellow	0	left	left	GLO	right	far	0	intact	none	none	0	0	0.879346	0	1	left	yellow	1	0	0
415	1	30	1	none	1.5	1.5119	green	1	up	up	GLO	left	close	0	intact	none	none	0	0	0.765711	0	1	right	green	1	0	0
415	1	31	1	none	1.5	1.51389	blue	1	left	left	GLO	left	close	0	intact	none	none	0	0	1.0319	0	1	up	blue	1	0	0
415	1	32	1	none	1.5	1.51291	blue	1	right	right	GLO	right	far	0	intact	none	none	0	0	0.747819	0	1	up	blue	1	0	0
415	1	33	1	none	1.5	1.51466	yellow	0	left	left	GLO	right	far	0	intact	none	none	0	0	0.557343	0	1	left	yellow	1	0	0
415	1	34	1	none	1.5	1.51229	red	0	down	down	GLO	right	close	0	intact	none	none	0	0	0.396822	0	1	down	red	1	0	0
415	1	35	1	none	1.5	1.5124	red	1	left	left	GLO	right	close	0	intact	none	none	0	0	0.661849	0	1	down	red	1	0	0
415	1	36	1	none	0.5	0.51191	yellow	1	up	up	GLO	left	close	0	intact	none	none	0	0	0.873614	0	1	left	yellow	1	0	0
415	1	37	1	none	0.5	0.511932	blue	0	up	up	GLO	left	far	0	intact	none	none	0	0	0.608492	0	1	right	green	0	0	0
415	1	38	1	none	0.5	0.512641	blue	0	up	up	GLO	right	close	0	intact	none	none	0	0	0.631025	0	1	up	blue	1	0	0
415	1	39	1	none	0.5	0.512551	yellow	1	up	up	GLO	right	far	0	intact	none	none	0	0	0.730758	0	1	left	yellow	1	0	0
415	1	40	1	none	0.5	0.513902	blue	0	up	up	GLO	left	far	0	intact	none	none	0	0	0.573484	0	1	up	blue	1	0	0
415	1	41	1	none	0.5	0.511002	red	0	down	down	GLO	right	close	0	intact	none	none	0	0	0.662609	0	1	down	red	1	0	0
415	1	42	1	none	0.5	0.514509	red	0	down	down	GLO	right	far	0	intact	none	none	0	0	0.531021	0	1	down	red	1	0	0
415	1	43	1	none	0.5	0.513262	blue	0	up	up	GLO	left	close	0	intact	none	none	0	0	0.565631	0	1	up	blue	1	0	0
415	1	44	1	none	0.5	0.51456	red	1	right	right	GLO	right	far	0	intact	none	none	0	0	0.793493	0	1	down	red	1	0	0
415	1	45	1	none	0.5	0.51322	blue	1	down	down	GLO	left	close	0	intact	none	none	0	0	0.915197	0	1	up	blue	1	0	0
415	1	46	1	none	0.5	0.514009	blue	1	down	down	GLO	right	close	0	intact	none	none	0	0	0.58317	0	1	up	blue	1	0	0
415	1	47	1	none	0.5	0.513033	blue	0	up	up	GLO	right	far	0	intact	none	none	0	0	0.544518	0	1	up	blue	1	0	0
415	1	48	1	none	0.5	0.515237	yellow	1	up	up	GLO	right	far	0	intact	none	none	0	0	0.580343	0	1	left	yellow	1	0	0
415	1	49	1	none	0.5	0.511743	blue	0	up	up	GLO	right	close	0	intact	none	none	0	0	0.591038	0	1	down	red	0	0	0
415	1	50	1	none	0.5	0.515441	yellow	1	right	right	GLO	left	close	0	intact	none	none	0	0	1.18185	0	1	left	yellow	1	0	0
415	1	51	1	none	0.5	0.512922	green	0	right	right	GLO	right	close	0	intact	none	none	0	0	0.664117	0	1	right	green	1	0	0
415	1	52	1	none	0.5	0.514934	yellow	1	right	right	GLO	right	far	0	intact	none	none	0	0	2.09849	0	1	left	yellow	1	0	0
415	1	53	1	none	0.5	0.513191	red	1	up	up	GLO	left	far	0	intact	none	none	0	0	0.92813	0	1	down	red	1	0	0
415	1	54	1	none	0.5	0.512549	red	0	down	down	GLO	right	far	0	intact	none	none	0	0	0.532093	0	1	down	red	1	0	0
415	1	55	1	none	0.5	0.512117	blue	1	left	left	GLO	right	far	0	intact	none	none	0	0	0.649057	0	1	up	blue	1	0	0
415	1	56	1	none	0.5	0.513555	blue	0	up	up	GLO	right	far	0	intact	none	none	0	0	0.531394	0	1	up	blue	1	0	0
415	1	57	1	none	0.5	0.513031	green	0	right	right	GLO	right	far	0	intact	none	none	0	0	1.23092	0	1	right	green	1	0	0
415	1	58	1	none	0.5	0.511398	red	0	down	down	GLO	left	far	0	intact	none	none	0	0	1.36473	0	1	down	red	1	0	0
415	1	59	1	none	0.5	0.512932	yellow	1	down	down	GLO	left	far	0	intact	none	none	0	0	0.726867	0	1	left	yellow	1	0	0
415	1	60	1	none	0.5	0.51288	red	1	left	left	GLO	right	far	0	intact	none	none	0	0	0.757523	0	1	down	red	1	0	0
415	1	61	1	none	0.5	0.512182	red	1	up	up	GLO	right	far	0	intact	none	none	0	0	0.598398	0	1	down	red	1	0	0
415	1	62	1	none	0.5	0.515163	yellow	1	up	up	GLO	right	far	0	intact	none	none	0	0	0.815668	0	1	left	yellow	1	0	0
415	1	63	1	none	0.5	0.511941	green	1	left	left	GLO	right	far	0	intact	none	none	0	0	0.74924	0	1	right	green	1	0	0
415	1	64	1	none	0.5	0.512794	red	1	right	right	GLO	left	far	0	intact	none	none	0	0	0.776481	0	1	down	red	1	0	0
415	1	65	1	none	0.5	0.513308	blue	0	up	up	GLO	right	far	0	intact	none	none	0	0	0.542291	0	1	up	blue	1	0	0
415	1	66	1	none	0.5	0.511812	red	1	left	left	GLO	right	far	0	intact	none	none	0	0	0.697136	0	1	right	green	0	0	0
415	1	67	1	none	0.5	0.511874	red	1	right	right	GLO	left	far	0	intact	none	none	0	0	0.692526	0	1	down	red	1	0	0
415	1	68	1	none	0.5	0.510341	red	0	down	down	GLO	right	far	0	intact	none	none	0	0	0.515675	0	1	down	red	1	0	0
415	1	69	1	none	0.5	0.51144	yellow	0	left	left	GLO	right	far	0	intact	none	none	0	0	0.892338	0	1	left	yellow	1	0	0
415	1	70	1	none	0.5	0.514163	green	1	up	up	GLO	left	far	0	intact	none	none	0	0	0.828541	0	1	right	green	1	0	0
415	1	71	1	none	0.5	0.511067	blue	0	up	up	GLO	right	far	0	intact	none	none	0	0	0.612872	0	1	up	blue	1	0	0
415	1	72	1	none	0.5	0.51162	blue	0	up	up	GLO	right	close	0	intact	none	none	0	0	0.531842	0	1	up	blue	1	0	0
415	1	73	1	none	0.5	0.511286	red	0	down	down	GLO	right	close	0	intact	none	none	0	0	0.659651	0	1	down	red	1	0	0
415	1	74	1	none	0.5	0.513308	green	0	right	right	GLO	right	far	0	intact	none	none	0	0	0.699154	0	1	left	yellow	0	0	0
415	1	75	1	none	0.5	0.510646	green	0	right	right	GLO	right	far	0	intact	none	none	0	0	0.764439	0	1	right	green	1	0	0
415	1	76	1	none	0.5	0.51255	blue	0	up	up	GLO	right	close	0	intact	none	none	0	0	1.13202	0	1	up	blue	1	0	0
415	1	77	1	none	0.5	0.513957	green	0	right	right	GLO	right	close	0	intact	none	none	0	0	0.742527	0	1	right	green	1	0	0
415	1	78	1	none	0.5	0.513282	yellow	0	left	left	GLO	right	far	0	intact	none	none	0	0	0.590742	0	1	left	yellow	1	0	0
415	1	79	1	none	0.5	0.512711	red	0	down	down	GLO	right	far	0	intact	none	none	0	0	0.447645	0	1	down	red	1	0	0
415	1	80	1	none	0.5	0.512561	blue	0	up	up	GLO	left	close	0	intact	none	none	0	0	0.532245	0	1	up	blue	1	0	0
415	1	81	1	none	0.5	0.516521	blue	0	up	up	GLO	left	close	0	intact	none	none	0	0	0.538033	0	1	up	blue	1	0	0
415	1	82	1	none	0.5	0.511574	red	1	left	left	GLO	right	far	0	intact	none	none	0	0	1.02658	0	1	down	red	1	0	0
415	1	83	1	none	0.5	0.512322	red	0	down	down	GLO	right	far	0	intact	none	none	0	0	0.565286	0	1	down	red	1	0	0
415	1	84	1	none	0.5	0.51227	red	1	up	up	GLO	right	far	0	intact	none	none	0	0	0.55879	0	1	down	red	1	0	0
415	1	85	1	none	0.5	0.508395	blue	0	up	up	GLO	right	close	0	intact	none	none	0	0	0.781755	0	1	up	blue	1	0	0
415	1	86	1	none	0.5	0.514203	yellow	1	down	down	GLO	left	close	0	intact	none	none	0	0	0.681598	0	1	left	yellow	1	0	0
415	1	87	1	none	0.5	0.509885	red	1	right	right	GLO	left	close	0	intact	none	none	0	0	0.925126	0	1	down	red	1	0	0
415	1	88	1	none	0.5	0.51581	green	1	left	left	GLO	right	close	0	intact	none	none	0	0	0.712283	0	1	right	green	1	0	0
415	1	89	1	none	0.5	0.509938	blue	0	up	up	GLO	right	close	0	intact	none	none	0	0	1.07498	0	1	up	blue	1	0	0
415	1	90	1	none	0.5	0.514293	blue	0	up	up	GLO	left	close	0	intact	none	none	0	0	0.482054	0	1	up	blue	1	0	0
415	1	91	1	none	0.5	0.51196	yellow	0	left	left	GLO	left	close	0	intact	none	none	0	0	0.906354	0	1	right	green	0	0	0
415	1	92	1	none	0.5	0.513684	red	0	down	down	GLO	right	far	0	intact	none	none	0	0	1.29331	0	1	down	red	1	0	0
415	1	93	1	none	0.5	0.512708	yellow	0	left	left	GLO	right	close	0	intact	none	none	0	0	0.928901	0	1	left	yellow	1	0	0
415	1	94	1	none	0.5	NaN	blue	0	up	up	GLO	none	close	0	intact	none	none	0	0	NaN	NaN	NaN	none	none	NaN	0	0
415	1	95	1	none	0.5	NaN	red	0	down	down	GLO	none	close	0	intact	none	none	0	0	NaN	NaN	NaN	none	none	NaN	0	0
415	1	96	1	none	0.5	NaN	green	1	down	down	GLO	none	close	0	intact	none	none	0	0	NaN	NaN	NaN	none	none	NaN	0	0
415	1	97	1	none	0.5	NaN	red	1	up	up	GLO	none	far	0	intact	none	none	0	0	NaN	NaN	NaN	none	none	NaN	0	0
415	1	98	1	none	0.5	NaN	green	1	up	up	GLO	none	far	0	intact	none	none	0	0	NaN	NaN	NaN	none	none	NaN	0	0
415	1	99	1	none	0.5	NaN	yellow	1	right	right	GLO	none	far	0	intact	none	none	0	0	NaN	NaN	NaN	none	none	NaN	0	0
415	1	100	1	none	0.5	NaN	yellow	0	left	left	GLO	none	far	0	intact	none	none	0	0	NaN	NaN	NaN	none	none	NaN	0	0
415	1	101	1	none	0.5	NaN	green	1	left	left	GLO	none	far	0	intact	none	none	0	0	NaN	NaN	NaN	none	none	NaN	0	0
415	1	102	1	none	0.5	NaN	yellow	1	down	down	GLO	none	close	0	intact	none	none	0	0	NaN	NaN	NaN	none	none	NaN	0	0
415	1	103	1	none	0.5	NaN	green	1	up	up	GLO	none	close	0	intact	none	none	0	0	NaN	NaN	NaN	none	none	NaN	0	0
415	1	104	1	none	0.5	NaN	blue	1	down	down	GLO	none	far	0	intact	none	none	0	0	NaN	NaN	NaN	none	none	NaN	0	0
415	1	105	1	none	0.5	NaN	blue	1	left	left	GLO	none	far	0	intact	none	none	0	0	NaN	NaN	NaN	none	none	NaN	0	0
415	1	106	1	none	0.5	NaN	blue	0	up	up	GLO	none	far	0	intact	none	none	0	0	NaN	NaN	NaN	none	none	NaN	0	0
415	1	107	1	none	0.5	NaN	green	0	right	right	GLO	none	close	0	intact	none	none	0	0	NaN	NaN	NaN	none	none	NaN	0	0
415	1	108	1	none	0.5	NaN	blue	1	left	left	GLO	none	close	0	intact	none	none	0	0	NaN	NaN	NaN	none	none	NaN	0	0
415	1	109	1	none	0.5	NaN	blue	1	right	right	GLO	none	far	0	intact	none	none	0	0	NaN	NaN	NaN	none	none	NaN	0	0
415	1	110	1	none	0.5	NaN	yellow	0	left	left	GLO	none	close	0	intact	none	none	0	0	NaN	NaN	NaN	none	none	NaN	0	0
415	1	111	1	none	0.5	NaN	green	1	down	down	GLO	none	far	0	intact	none	none	0	0	NaN	NaN	NaN	none	none	NaN	0	0
415	1	112	1	none	0.5	NaN	blue	1	right	right	GLO	none	far	0	intact	none	none	0	0	NaN	NaN	NaN	none	none	NaN	0	0
415	1	113	1	none	0.5	NaN	green	1	down	down	GLO	none	far	0	intact	none	none	0	0	NaN	NaN	NaN	none	none	NaN	0	0
415	1	114	1	none	0.5	NaN	green	0	right	right	GLO	none	far	0	intact	none	none	0	0	NaN	NaN	NaN	none	none	NaN	0	0
415	1	115	1	none	0.5	NaN	green	0	right	right	GLO	none	close	0	intact	none	none	0	0	NaN	NaN	NaN	none	none	NaN	0	0
415	1	116	1	none	0.5	NaN	blue	1	down	down	GLO	none	close	0	intact	none	none	0	0	NaN	NaN	NaN	none	none	NaN	0	0
415	1	117	1	none	0.5	NaN	red	0	down	down	GLO	none	far	0	intact	none	none	0	0	NaN	NaN	NaN	none	none	NaN	0	0
415	1	118	1	none	0.5	NaN	blue	0	up	up	GLO	none	close	0	intact	none	none	0	0	NaN	NaN	NaN	none	none	NaN	0	0
415	1	119	1	none	0.5	NaN	red	0	down	down	GLO	none	close	0	intact	none	none	0	0	NaN	NaN	NaN	none	none	NaN	0	0
415	1	120	1	none	0.5	NaN	green	0	right	right	GLO	none	far	0	intact	none	none	0	0	NaN	NaN	NaN	none	none	NaN	0	0
415	1	121	1	none	0.5	NaN	yellow	0	left	left	GLO	none	close	0	intact	none	none	0	0	NaN	NaN	NaN	none	none	NaN	0	0
415	1	122	1	none	0.5	NaN	yellow	0	left	left	GLO	none	far	0	intact	none	none	0	0	NaN	NaN	NaN	none	none	NaN	0	0
415	1	123	1	none	0.5	NaN	blue	1	right	right	GLO	none	close	0	intact	none	none	0	0	NaN	NaN	NaN	none	none	NaN	0	0
415	1	124	1	none	0.5	NaN	blue	0	up	up	GLO	none	close	0	intact	none	none	0	0	NaN	NaN	NaN	none	none	NaN	0	0
415	1	125	1	none	0.5	NaN	green	0	right	right	GLO	none	far	0	intact	none	none	0	0	NaN	NaN	NaN	none	none	NaN	0	0
415	1	126	1	none	0.5	NaN	green	1	down	down	GLO	none	close	0	intact	none	none	0	0	NaN	NaN	NaN	none	none	NaN	0	0
415	1	127	1	none	0.5	NaN	yellow	1	down	down	GLO	none	close	0	intact	none	none	0	0	NaN	NaN	NaN	none	none	NaN	0	0
415	1	128	1	none	0.5	NaN	green	1	up	up	GLO	none	close	0	intact	none	none	0	0	NaN	NaN	NaN	none	none	NaN	0	0
415	1	129	1	none	0.5	NaN	red	0	down	down	GLO	none	close	0	intact	none	none	0	0	NaN	NaN	NaN	none	none	NaN	0	0
415	1	130	1	none	0.5	NaN	yellow	0	left	left	GLO	none	far	0	intact	none	none	0	0	NaN	NaN	NaN	none	none	NaN	0	0
415	1	131	1	none	0.5	NaN	green	0	right	right	GLO	none	far	0	intact	none	none	0	0	NaN	NaN	NaN	none	none	NaN	0	0
415	1	132	1	none	0.5	NaN	blue	0	up	up	GLO	none	far	0	intact	none	none	0	0	NaN	NaN	NaN	none	none	NaN	0	0
415	1	133	1	none	0.5	NaN	blue	1	down	down	GLO	none	far	0	intact	none	none	0	0	NaN	NaN	NaN	none	none	NaN	0	0
415	1	134	1	none	0.5	NaN	blue	0	up	up	GLO	none	far	0	intact	none	none	0	0	NaN	NaN	NaN	none	none	NaN	0	0
415	1	135	1	none	0.5	NaN	red	0	down	down	GLO	none	far	0	intact	none	none	0	0	NaN	NaN	NaN	none	none	NaN	0	0
415	1	136	1	none	0.5	NaN	green	0	right	right	GLO	none	far	0	intact	none	none	0	0	NaN	NaN	NaN	none	none	NaN	0	0
415	1	137	1	none	0.5	NaN	green	1	up	up	GLO	none	close	0	intact	none	none	0	0	NaN	NaN	NaN	none	none	NaN	0	0
415	1	138	1	none	0.5	NaN	yellow	1	up	up	GLO	none	close	0	intact	none	none	0	0	NaN	NaN	NaN	none	none	NaN	0	0
415	1	139	1	none	0.5	NaN	blue	0	up	up	GLO	none	far	0	intact	none	none	0	0	NaN	NaN	NaN	none	none	NaN	0	0
415	1	140	1	none	0.5	NaN	red	0	down	down	GLO	none	close	0	intact	none	none	0	0	NaN	NaN	NaN	none	none	NaN	0	0
415	1	141	1	none	0.5	NaN	green	0	right	right	GLO	none	close	0	intact	none	none	0	0	NaN	NaN	NaN	none	none	NaN	0	0
415	1	142	1	none	0.5	NaN	yellow	1	down	down	GLO	none	far	0	intact	none	none	0	0	NaN	NaN	NaN	none	none	NaN	0	0
415	1	143	1	none	0.5	NaN	blue	0	up	up	GLO	none	far	0	intact	none	none	0	0	NaN	NaN	NaN	none	none	NaN	0	0
415	1	144	1	none	0.5	NaN	blue	1	left	left	GLO	none	far	0	intact	none	none	0	0	NaN	NaN	NaN	none	none	NaN	0	0
415	1	145	1	none	0.5	NaN	red	0	down	down	GLO	none	far	0	intact	none	none	0	0	NaN	NaN	NaN	none	none	NaN	0	0
415	1	146	1	none	0.5	NaN	green	0	right	right	GLO	none	close	0	intact	none	none	0	0	NaN	NaN	NaN	none	none	NaN	0	0
415	1	147	1	none	0.5	NaN	blue	0	up	up	GLO	none	far	0	intact	none	none	0	0	NaN	NaN	NaN	none	none	NaN	0	0
415	1	148	1	none	0.5	NaN	blue	0	up	up	GLO	none	far	0	intact	none	none	0	0	NaN	NaN	NaN	none	none	NaN	0	0
415	1	149	1	none	0.5	NaN	green	0	right	right	GLO	none	close	0	intact	none	none	0	0	NaN	NaN	NaN	none	none	NaN	0	0
415	1	150	1	none	0.5	NaN	yellow	1	down	down	GLO	none	far	0	intact	none	none	0	0	NaN	NaN	NaN	none	none	NaN	0	0
415	1	151	1	none	0.5	NaN	blue	0	up	up	GLO	none	close	0	intact	none	none	0	0	NaN	NaN	NaN	none	none	NaN	0	0
415	1	152	1	none	0.5	NaN	blue	0	up	up	GLO	none	close	0	intact	none	none	0	0	NaN	NaN	NaN	none	none	NaN	0	0
415	1	153	1	none	0.5	NaN	green	0	right	right	GLO	none	far	0	intact	none	none	0	0	NaN	NaN	NaN	none	none	NaN	0	0
415	1	154	1	none	0.5	NaN	yellow	0	left	left	GLO	none	close	0	intact	none	none	0	0	NaN	NaN	NaN	none	none	NaN	0	0
415	1	155	1	none	0.5	NaN	blue	0	up	up	GLO	none	close	0	intact	none	none	0	0	NaN	NaN	NaN	none	none	NaN	0	0
415	1	156	1	none	0.5	NaN	red	1	left	left	GLO	none	far	0	intact	none	none	0	0	NaN	NaN	NaN	none	none	NaN	0	0
415	1	157	1	none	0.5	NaN	red	0	down	down	GLO	none	close	0	intact	none	none	0	0	NaN	NaN	NaN	none	none	NaN	0	0
415	1	158	1	none	0.5	NaN	yellow	1	up	up	GLO	none	far	0	intact	none	none	0	0	NaN	NaN	NaN	none	none	NaN	0	0
415	1	159	1	none	0.5	NaN	blue	0	up	up	GLO	none	far	0	intact	none	none	0	0	NaN	NaN	NaN	none	none	NaN	0	0
415	1	160	1	none	0.5	NaN	blue	1	left	left	GLO	none	far	0	intact	none	none	0	0	NaN	NaN	NaN	none	none	NaN	0	0
415	1	161	1	none	0.5	NaN	red	1	up	up	GLO	none	far	0	intact	none	none	0	0	NaN	NaN	NaN	none	none	NaN	0	0
415	1	162	1	none	0.5	NaN	yellow	0	left	left	GLO	none	far	0	intact	none	none	0	0	NaN	NaN	NaN	none	none	NaN	0	0
415	1	163	1	none	0.5	NaN	red	1	up	up	GLO	none	far	0	intact	none	none	0	0	NaN	NaN	NaN	none	none	NaN	0	0
415	1	164	1	none	0.5	NaN	blue	0	up	up	GLO	none	far	0	intact	none	none	0	0	NaN	NaN	NaN	none	none	NaN	0	0
415	1	165	1	none	0.5	NaN	blue	0	up	up	GLO	none	close	0	intact	none	none	0	0	NaN	NaN	NaN	none	none	NaN	0	0
415	1	166	1	none	0.5	NaN	yellow	1	up	up	GLO	none	close	0	intact	none	none	0	0	NaN	NaN	NaN	none	none	NaN	0	0
415	1	167	1	none	0.5	NaN	green	1	left	left	GLO	none	far	0	intact	none	none	0	0	NaN	NaN	NaN	none	none	NaN	0	0
415	1	168	1	none	0.5	NaN	red	1	left	left	GLO	none	close	0	intact	none	none	0	0	NaN	NaN	NaN	none	none	NaN	0	0
415	1	169	1	none	0.5	NaN	red	1	right	right	GLO	none	far	0	intact	none	none	0	0	NaN	NaN	NaN	none	none	NaN	0	0
415	1	170	1	none	0.5	NaN	green	0	right	right	GLO	none	close	0	intact	none	none	0	0	NaN	NaN	NaN	none	none	NaN	0	0
415	1	171	1	none	0.5	NaN	red	1	right	right	GLO	none	close	0	intact	none	none	0	0	NaN	NaN	NaN	none	none	NaN	0	0
415	1	172	1	none	0.5	NaN	green	1	left	left	GLO	none	close	0	intact	none	none	0	0	NaN	NaN	NaN	none	none	NaN	0	0
415	1	173	1	none	0.5	NaN	red	1	left	left	GLO	none	far	0	intact	none	none	0	0	NaN	NaN	NaN	none	none	NaN	0	0
415	1	174	1	none	0.5	NaN	blue	0	up	up	GLO	none	close	0	intact	none	none	0	0	NaN	NaN	NaN	none	none	NaN	0	0
415	1	175	1	none	0.5	NaN	green	0	right	right	GLO	none	close	0	intact	none	none	0	0	NaN	NaN	NaN	none	none	NaN	0	0
415	1	176	1	none	0.5	NaN	red	1	up	up	GLO	none	close	0	intact	none	none	0	0	NaN	NaN	NaN	none	none	NaN	0	0
415	1	177	1	none	0.5	NaN	blue	0	up	up	GLO	none	close	0	intact	none	none	0	0	NaN	NaN	NaN	none	none	NaN	0	0
415	1	178	1	none	0.5	NaN	yellow	0	left	left	GLO	none	close	0	intact	none	none	0	0	NaN	NaN	NaN	none	none	NaN	0	0
415	1	179	1	none	0.5	NaN	yellow	1	up	up	GLO	none	close	0	intact	none	none	0	0	NaN	NaN	NaN	none	none	NaN	0	0
415	1	180	1	none	0.5	NaN	red	0	down	down	GLO	none	far	0	intact	none	none	0	0	NaN	NaN	NaN	none	none	NaN	0	0
415	1	181	1	none	0.5	NaN	green	0	right	right	GLO	none	close	0	intact	none	none	0	0	NaN	NaN	NaN	none	none	NaN	0	0
415	1	182	1	none	0.5	NaN	blue	0	up	up	GLO	none	close	0	intact	none	none	0	0	NaN	NaN	NaN	none	none	NaN	0	0
415	1	183	1	none	0.5	NaN	blue	0	up	up	GLO	none	close	0	intact	none	none	0	0	NaN	NaN	NaN	none	none	NaN	0	0
415	1	184	1	none	0.5	NaN	blue	1	right	right	GLO	none	close	0	intact	none	none	0	0	NaN	NaN	NaN	none	none	NaN	0	0
415	1	185	1	none	0.5	NaN	green	1	up	up	GLO	none	far	0	intact	none	none	0	0	NaN	NaN	NaN	none	none	NaN	0	0
415	1	186	1	none	0.5	NaN	green	0	right	right	GLO	none	far	0	intact	none	none	0	0	NaN	NaN	NaN	none	none	NaN	0	0
415	1	187	1	none	0.5	NaN	yellow	1	up	up	GLO	none	far	0	intact	none	none	0	0	NaN	NaN	NaN	none	none	NaN	0	0
415	1	188	1	none	0.5	NaN	green	0	right	right	GLO	none	close	0	intact	none	none	0	0	NaN	NaN	NaN	none	none	NaN	0	0
415	1	189	1	none	0.5	NaN	blue	1	down	down	GLO	none	far	0	intact	none	none	0	0	NaN	NaN	NaN	none	none	NaN	0	0
415	1	190	1	none	0.5	NaN	yellow	1	up	up	GLO	none	close	0	intact	none	none	0	0	NaN	NaN	NaN	none	none	NaN	0	0
415	1	191	1	none	0.5	NaN	yellow	1	right	right	GLO	none	close	0	intact	none	none	0	0	NaN	NaN	NaN	none	none	NaN	0	0
415	1	192	1	none	0.5	NaN	blue	0	up	up	GLO	none	close	0	intact	none	none	0	0	NaN	NaN	NaN	none	none	NaN	0	0
415	1	193	1	none	0.5	NaN	green	1	up	up	GLO	none	far	0	intact	none	none	0	0	NaN	NaN	NaN	none	none	NaN	0	0
415	1	194	1	none	0.5	NaN	green	1	left	left	GLO	none	far	0	intact	none	none	0	0	NaN	NaN	NaN	none	none	NaN	0	0
415	1	195	1	none	0.5	NaN	yellow	0	left	left	GLO	none	far	0	intact	none	none	0	0	NaN	NaN	NaN	none	none	NaN	0	0
415	1	196	1	none	0.5	NaN	yellow	0	left	left	GLO	none	close	0	intact	none	none	0	0	NaN	NaN	NaN	none	none	NaN	0	0
415	1	197	1	none	0.5	NaN	blue	0	up	up	GLO	none	close	0	intact	none	none	0	0	NaN	NaN	NaN	none	none	NaN	0	0
415	1	198	1	none	0.5	NaN	red	1	right	right	GLO	none	far	0	intact	none	none	0	0	NaN	NaN	NaN	none	none	NaN	0	0
415	1	199	1	none	0.5	NaN	yellow	1	up	up	GLO	none	far	0	intact	none	none	0	0	NaN	NaN	NaN	none	none	NaN	0	0
415	1	200	1	none	0.5	NaN	green	1	down	down	GLO	none	far	0	intact	none	none	0	0	NaN	NaN	NaN	none	none	NaN	0	0
415	1	201	1	none	0.5	NaN	green	0	right	right	GLO	none	far	0	intact	none	none	0	0	NaN	NaN	NaN	none	none	NaN	0	0
415	1	202	1	none	0.5	NaN	red	1	up	up	GLO	none	far	0	intact	none	none	0	0	NaN	NaN	NaN	none	none	NaN	0	0
415	1	203	1	none	0.5	NaN	blue	0	up	up	GLO	none	far	0	intact	none	none	0	0	NaN	NaN	NaN	none	none	NaN	0	0
415	1	204	1	none	0.5	NaN	red	1	right	right	GLO	none	close	0	intact	none	none	0	0	NaN	NaN	NaN	none	none	NaN	0	0
415	1	205	1	none	0.5	NaN	blue	0	up	up	GLO	none	far	0	intact	none	none	0	0	NaN	NaN	NaN	none	none	NaN	0	0
415	1	206	1	none	0.5	NaN	red	0	down	down	GLO	none	close	0	intact	none	none	0	0	NaN	NaN	NaN	none	none	NaN	0	0
415	1	207	1	none	0.5	NaN	green	0	right	right	GLO	none	far	0	intact	none	none	0	0	NaN	NaN	NaN	none	none	NaN	0	0
415	1	208	1	none	0.5	NaN	red	0	down	down	GLO	none	close	0	intact	none	none	0	0	NaN	NaN	NaN	none	none	NaN	0	0
415	1	209	1	none	0.5	NaN	red	0	down	down	GLO	none	far	0	intact	none	none	0	0	NaN	NaN	NaN	none	none	NaN	0	0
415	1	210	1	none	0.5	NaN	green	0	right	right	GLO	none	close	0	intact	none	none	0	0	NaN	NaN	NaN	none	none	NaN	0	0
415	1	211	1	none	0.5	NaN	red	0	down	down	GLO	none	close	0	intact	none	none	0	0	NaN	NaN	NaN	none	none	NaN	0	0
415	1	212	1	none	0.5	NaN	yellow	1	up	up	GLO	none	far	0	intact	none	none	0	0	NaN	NaN	NaN	none	none	NaN	0	0
415	1	213	1	none	0.5	NaN	blue	0	up	up	GLO	none	close	0	intact	none	none	0	0	NaN	NaN	NaN	none	none	NaN	0	0
415	1	214	1	none	0.5	NaN	red	1	left	left	GLO	none	close	0	intact	none	none	0	0	NaN	NaN	NaN	none	none	NaN	0	0
415	1	215	1	none	0.5	NaN	green	1	up	up	GLO	none	far	0	intact	none	none	0	0	NaN	NaN	NaN	none	none	NaN	0	0
415	1	216	1	none	0.5	NaN	green	1	up	up	GLO	none	far	0	intact	none	none	0	0	NaN	NaN	NaN	none	none	NaN	0	0
415	1	217	1	none	0.5	NaN	blue	1	down	down	GLO	none	close	0	intact	none	none	0	0	NaN	NaN	NaN	none	none	NaN	0	0
415	1	218	1	none	0.5	NaN	yellow	1	up	up	GLO	none	far	0	intact	none	none	0	0	NaN	NaN	NaN	none	none	NaN	0	0
415	1	219	1	none	0.5	NaN	green	1	left	left	GLO	none	far	0	intact	none	none	0	0	NaN	NaN	NaN	none	none	NaN	0	0
415	1	220	1	none	0.5	NaN	green	0	right	right	GLO	none	close	0	intact	none	none	0	0	NaN	NaN	NaN	none	none	NaN	0	0
415	1	221	1	none	0.5	NaN	green	1	left	left	GLO	none	close	0	intact	none	none	0	0	NaN	NaN	NaN	none	none	NaN	0	0
415	1	222	1	none	0.5	NaN	green	0	right	right	GLO	none	far	0	intact	none	none	0	0	NaN	NaN	NaN	none	none	NaN	0	0
415	1	223	1	none	0.5	NaN	red	0	down	down	GLO	none	far	0	intact	none	none	0	0	NaN	NaN	NaN	none	none	NaN	0	0
415	1	224	1	none	0.5	NaN	blue	0	up	up	GLO	none	far	0	intact	none	none	0	0	NaN	NaN	NaN	none	none	NaN	0	0
415	1	225	1	none	0.5	NaN	green	0	right	right	GLO	none	far	0	intact	none	none	0	0	NaN	NaN	NaN	none	none	NaN	0	0
415	1	226	1	none	0.5	NaN	red	0	down	down	GLO	none	close	0	intact	none	none	0	0	NaN	NaN	NaN	none	none	NaN	0	0
415	1	227	1	none	0.5	NaN	yellow	1	right	right	GLO	none	far	0	intact	none	none	0	0	NaN	NaN	NaN	none	none	NaN	0	0
415	1	228	1	none	0.5	NaN	yellow	1	up	up	GLO	none	close	0	intact	none	none	0	0	NaN	NaN	NaN	none	none	NaN	0	0
415	1	229	1	none	0.5	NaN	yellow	1	down	down	GLO	none	far	0	intact	none	none	0	0	NaN	NaN	NaN	none	none	NaN	0	0
415	1	230	1	none	0.5	NaN	blue	0	up	up	GLO	none	close	0	intact	none	none	0	0	NaN	NaN	NaN	none	none	NaN	0	0
415	1	231	1	none	0.5	NaN	yellow	1	right	right	GLO	none	close	0	intact	none	none	0	0	NaN	NaN	NaN	none	none	NaN	0	0
415	1	232	1	none	0.5	NaN	red	0	down	down	GLO	none	close	0	intact	none	none	0	0	NaN	NaN	NaN	none	none	NaN	0	0
415	1	233	1	none	0.5	NaN	yellow	0	left	left	GLO	none	close	0	intact	none	none	0	0	NaN	NaN	NaN	none	none	NaN	0	0
415	1	234	1	none	0.5	NaN	blue	0	up	up	GLO	none	close	0	intact	none	none	0	0	NaN	NaN	NaN	none	none	NaN	0	0
415	1	235	1	none	0.5	NaN	green	0	right	right	GLO	none	far	0	intact	none	none	0	0	NaN	NaN	NaN	none	none	NaN	0	0
415	1	236	1	none	0.5	NaN	blue	0	up	up	GLO	none	far	0	intact	none	none	0	0	NaN	NaN	NaN	none	none	NaN	0	0
415	1	237	1	none	0.5	NaN	green	0	right	right	GLO	none	far	0	intact	none	none	0	0	NaN	NaN	NaN	none	none	NaN	0	0
415	1	238	1	none	0.5	NaN	yellow	1	down	down	GLO	none	close	0	intact	none	none	0	0	NaN	NaN	NaN	none	none	NaN	0	0
415	1	239	1	none	0.5	NaN	green	1	down	down	GLO	none	far	0	intact	none	none	0	0	NaN	NaN	NaN	none	none	NaN	0	0
415	1	240	1	none	0.5	NaN	yellow	1	up	up	GLO	none	far	0	intact	none	none	0	0	NaN	NaN	NaN	none	none	NaN	0	0
415	1	241	1	none	0.5	NaN	yellow	1	right	right	GLO	none	far	0	intact	none	none	0	0	NaN	NaN	NaN	none	none	NaN	0	0
415	1	242	1	none	0.5	NaN	yellow	0	left	left	GLO	none	far	0	intact	none	none	0	0	NaN	NaN	NaN	none	none	NaN	0	0
415	1	243	1	none	0.5	NaN	yellow	0	left	left	GLO	none	far	0	intact	none	none	0	0	NaN	NaN	NaN	none	none	NaN	0	0
415	1	244	1	none	0.5	NaN	yellow	1	right	right	GLO	none	far	0	intact	none	none	0	0	NaN	NaN	NaN	none	none	NaN	0	0
415	1	245	1	none	0.5	NaN	red	1	right	right	GLO	none	far	0	intact	none	none	0	0	NaN	NaN	NaN	none	none	NaN	0	0
415	1	246	1	none	0.5	NaN	green	1	up	up	GLO	none	far	0	intact	none	none	0	0	NaN	NaN	NaN	none	none	NaN	0	0
415	1	247	1	none	0.5	NaN	yellow	0	left	left	GLO	none	close	0	intact	none	none	0	0	NaN	NaN	NaN	none	none	NaN	0	0
415	1	248	1	none	0.5	NaN	yellow	0	left	left	GLO	none	far	0	intact	none	none	0	0	NaN	NaN	NaN	none	none	NaN	0	0
415	1	249	1	none	0.5	NaN	red	1	right	right	GLO	none	far	0	intact	none	none	0	0	NaN	NaN	NaN	none	none	NaN	0	0
415	1	250	1	none	0.5	NaN	yellow	1	down	down	GLO	none	close	0	intact	none	none	0	0	NaN	NaN	NaN	none	none	NaN	0	0
415	1	251	1	none	0.5	NaN	yellow	0	left	left	GLO	none	far	0	intact	none	none	0	0	NaN	NaN	NaN	none	none	NaN	0	0
415	1	252	1	none	0.5	NaN	yellow	0	left	left	GLO	none	close	0	intact	none	none	0	0	NaN	NaN	NaN	none	none	NaN	0	0
415	1	253	1	none	0.5	NaN	green	1	up	up	GLO	none	far	0	intact	none	none	0	0	NaN	NaN	NaN	none	none	NaN	0	0
415	1	254	1	none	0.5	NaN	red	0	down	down	GLO	none	far	0	intact	none	none	0	0	NaN	NaN	NaN	none	none	NaN	0	0
415	1	255	1	none	0.5	NaN	blue	1	right	right	GLO	none	far	0	intact	none	none	0	0	NaN	NaN	NaN	none	none	NaN	0	0
415	1	256	1	none	0.5	NaN	blue	1	left	left	GLO	none	far	0	intact	none	none	0	0	NaN	NaN	NaN	none	none	NaN	0	0
415	1	257	1	none	0.5	NaN	yellow	0	left	left	GLO	none	far	0	intact	none	none	0	0	NaN	NaN	NaN	none	none	NaN	0	0
415	1	258	1	none	0.5	NaN	yellow	1	right	right	GLO	none	far	0	intact	none	none	0	0	NaN	NaN	NaN	none	none	NaN	0	0
415	1	259	1	none	0.5	NaN	red	1	right	right	GLO	none	far	0	intact	none	none	0	0	NaN	NaN	NaN	none	none	NaN	0	0
415	1	260	1	none	0.5	NaN	green	0	right	right	GLO	none	far	0	intact	none	none	0	0	NaN	NaN	NaN	none	none	NaN	0	0
415	1	261	1	none	0.5	NaN	green	0	right	right	GLO	none	close	0	intact	none	none	0	0	NaN	NaN	NaN	none	none	NaN	0	0
415	1	262	1	none	0.5	NaN	green	0	right	right	GLO	none	far	0	intact	none	none	0	0	NaN	NaN	NaN	none	none	NaN	0	0
415	1	263	1	none	0.5	NaN	red	0	down	down	GLO	none	close	0	intact	none	none	0	0	NaN	NaN	NaN	none	none	NaN	0	0
415	1	264	1	none	0.5	NaN	yellow	0	left	left	GLO	none	close	0	intact	none	none	0	0	NaN	NaN	NaN	none	none	NaN	0	0
415	1	265	1	none	0.5	NaN	blue	1	down	down	GLO	none	close	0	intact	none	none	0	0	NaN	NaN	NaN	none	none	NaN	0	0
415	1	266	1	none	0.5	NaN	yellow	0	left	left	GLO	none	far	0	intact	none	none	0	0	NaN	NaN	NaN	none	none	NaN	0	0
415	1	267	1	none	0.5	NaN	blue	1	down	down	GLO	none	close	0	intact	none	none	0	0	NaN	NaN	NaN	none	none	NaN	0	0
415	1	268	1	none	0.5	NaN	yellow	0	left	left	GLO	none	far	0	intact	none	none	0	0	NaN	NaN	NaN	none	none	NaN	0	0
415	1	269	1	none	0.5	NaN	yellow	1	up	up	GLO	none	close	0	intact	none	none	0	0	NaN	NaN	NaN	none	none	NaN	0	0
415	1	270	1	none	0.5	NaN	green	0	right	right	GLO	none	close	0	intact	none	none	0	0	NaN	NaN	NaN	none	none	NaN	0	0
415	1	271	1	none	0.5	NaN	red	0	down	down	GLO	none	close	0	intact	none	none	0	0	NaN	NaN	NaN	none	none	NaN	0	0
415	1	272	1	none	0.5	NaN	yellow	0	left	left	GLO	none	far	0	intact	none	none	0	0	NaN	NaN	NaN	none	none	NaN	0	0
415	1	273	1	none	0.5	NaN	yellow	0	left	left	GLO	none	close	0	intact	none	none	0	0	NaN	NaN	NaN	none	none	NaN	0	0
415	1	274	1	none	0.5	NaN	blue	1	left	left	GLO	none	close	0	intact	none	none	0	0	NaN	NaN	NaN	none	none	NaN	0	0
415	1	275	1	none	0.5	NaN	green	0	right	right	GLO	none	close	0	intact	none	none	0	0	NaN	NaN	NaN	none	none	NaN	0	0
415	1	276	1	none	0.5	NaN	red	0	down	down	GLO	none	close	0	intact	none	none	0	0	NaN	NaN	NaN	none	none	NaN	0	0
415	1	277	1	none	0.5	NaN	red	1	up	up	GLO	none	close	0	intact	none	none	0	0	NaN	NaN	NaN	none	none	NaN	0	0
415	2	1	1	auto	1.5	1.51565	red	0	down	down	GLO	left	far	0	intact	none	none	0	0	1.16508	0	1	down	red	1	0	0
415	2	2	1	auto	1.5	1.50947	red	0	down	down	GLO	right	close	1	intact	intact	058bdf98-bb64-4851-92f5-ffad71866ee8_fps_avg_aud.mp4	1	0	0.719909	0	1	down	red	1	0	0
415	2	3	1	auto	1.5	1.51558	red	0	down	down	GLO	right	close	1	intact	intact	Jan30_fps_avg_aud.mp4	1	119	1.09892	0.465326	2	down	red	1	0	0
415	2	4	1	auto	1.5	1.51289	red	1	right	right	GLO	right	close	1	intact	intact	January_2016_(2)_fps_avg_aud.mp4	1	0	0.881112	0	1	down	red	1	0	0
415	2	5	1	auto	1.5	1.51539	red	0	down	down	GLO	left	close	1	intact	intact	9747c74d-dde2-4f34-b67e-0e02a9c1a69c_fps_avg_aud.mp4	1	56	0.650687	0.209284	1	down	red	1	0	0
415	2	6	1	auto	1.5	1.51288	red	0	down	down	GLO	left	far	1	intact	intact	08d3f099-f57f-4490-a984-630519ad1c45_fps_avg_aud.mp4	1	0	0.639413	0	1	down	red	1	0	0
415	2	7	1	auto	1.5	1.51085	blue	1	left	left	GLO	left	far	1	intact	intact	202647f1-9373-4eb4-ac9a-27bf605f227d_fps_avg_aud.mp4	1	0	0.863047	0	1	up	blue	1	0	0
415	2	8	1	auto	1.5	1.5097	red	0	down	down	GLO	right	far	1	intact	intact	8fc730b2-0fc1-4125-9e0e-c9ed1f9ab58a_fps_avg_aud.mp4	1	192	1.56528	0.723798	2	down	red	1	0	0
415	2	9	1	auto	1.5	1.51259	yellow	1	down	down	GLO	right	far	1	intact	intact	Dec21_fps_avg_aud.mp4	1	98	0.913108	0.424443	2	left	yellow	1	0	0
415	2	10	1	auto	1.5	1.51059	blue	1	right	right	GLO	left	close	1	intact	intact	fd318c50-e133-4dc8-918b-b97094aebdf0_fps_avg_aud.mp4	1	0	0.916001	0	1	up	blue	1	0	0
415	2	11	1	auto	1.5	1.51278	yellow	1	down	down	GLO	left	far	0	intact	none	none	0	0	0.865131	0	1	left	yellow	1	0	0
415	2	12	1	auto	0.5	0.508813	yellow	0	left	left	GLO	right	close	1	intact	intact	9c75459a-7dcd-444e-93fd-b229653b8169_fps_avg_aud.mp4	1	271	1.99914	1.46545	1	left	yellow	1	0	0
415	2	13	1	auto	0.5	0.511362	red	0	down	down	GLO	left	close	1	intact	intact	November_2015_(2)_fps_avg_aud.mp4	1	132	1.28918	0.509123	1	down	red	1	0	0
415	2	14	1	auto	0.5	0.511207	yellow	0	left	left	GLO	left	close	0	intact	none	none	0	0	0.809903	0	1	left	yellow	1	0	0
415	2	15	1	auto	0.5	0.514303	red	0	down	down	GLO	left	far	1	intact	intact	Sep19_fps_avg_aud.mp4	1	142	1.32524	0.810577	1	down	red	1	0	0
415	2	16	1	auto	0.5	0.514524	yellow	1	up	up	GLO	right	close	0	intact	none	none	0	0	0.880845	0	1	left	yellow	1	0	0
415	2	17	1	auto	0.5	0.510877	green	1	down	down	GLO	right	close	1	intact	intact	342c3db7-0e7e-4cf9-b04c-0d7bba48d8bb_fps_avg_aud.mp4	1	53	1.39109	0.184389	1	right	green	1	0	0
415	2	18	1	auto	0.5	0.515309	red	0	down	down	GLO	right	close	1	intact	intact	801d308b-7fe8-4a7f-8ad6-dafa42c9e3af_fps_avg_aud.mp4	1	102	0.864772	0.480592	1	down	red	1	0	0
415	2	19	1	auto	0.5	0.513931	yellow	1	up	up	GLO	right	close	1	intact	intact	May_18_2016_fps_avg_aud.mp4	1	463	3.04565	2.09526	3	left	yellow	1	0	0
415	2	20	1	auto	0.5	0.512288	green	0	right	right	GLO	left	close	0	intact	none	none	0	0	1.61572	0	1	right	green	1	0	0
415	2	21	1	auto	0.5	0.510639	green	0	right	right	GLO	left	close	1	intact	intact	e00791ee-f5a4-4315-8214-e183c3e1d2cf_fps_avg_aud.mp4	1	1	0.608593	5.449e-06	1	right	green	1	0	0
415	2	22	1	auto	0.5	0.512638	yellow	0	left	left	GLO	right	close	1	intact	intact	b2b0c46b-c908-4752-b5cb-16abe9f2c872_fps_avg_aud.mp4	1	117	1.11335	0.563302	1	left	yellow	1	0	0
415	2	23	1	auto	0.5	0.512639	yellow	0	left	left	GLO	left	close	1	intact	intact	e2244423-2494-4cef-96da-ceaa115b3e8d_fps_avg_aud.mp4	1	1314	5.75201	5.44636	1	left	yellow	1	0	0
415	2	24	1	auto	0.5	NaN	blue	0	up	up	GLO	none	far	1	intact	intact	Mar20_fps_avg_aud.mp4	0	0	NaN	NaN	NaN	none	none	NaN	0	0
415	2	25	1	auto	0.5	NaN	green	1	down	down	GLO	none	close	0	intact	none	none	0	0	NaN	NaN	NaN	none	none	NaN	0	0
415	2	26	1	auto	0.5	NaN	yellow	0	left	left	GLO	none	far	1	intact	intact	eec24f3a-496f-4cb7-8f48-5bf5530f3e96_fps_avg_aud.mp4	0	0	NaN	NaN	NaN	none	none	NaN	0	0
415	2	27	1	auto	0.5	NaN	red	1	left	left	GLO	none	close	0	intact	none	none	0	0	NaN	NaN	NaN	none	none	NaN	0	0
415	2	28	1	auto	0.5	NaN	yellow	0	left	left	GLO	none	close	1	intact	intact	July21_fps_avg_aud.mp4	0	0	NaN	NaN	NaN	none	none	NaN	0	0
415	2	29	1	auto	0.5	NaN	red	1	up	up	GLO	none	close	1	intact	intact	c5792f9d-c420-493b-acf2-46528babd08c_fps_avg_aud.mp4	0	0	NaN	NaN	NaN	none	none	NaN	0	0
415	2	30	1	auto	0.5	NaN	red	0	down	down	GLO	none	far	0	intact	none	none	0	0	NaN	NaN	NaN	none	none	NaN	0	0
415	2	31	1	auto	0.5	NaN	blue	0	up	up	GLO	none	far	1	intact	intact	fdcb9b5f-28c7-4da4-867c-57e1763a716c_fps_avg_aud.mp4	0	0	NaN	NaN	NaN	none	none	NaN	0	0
415	2	32	1	auto	0.5	NaN	blue	0	up	up	GLO	none	close	0	intact	none	none	0	0	NaN	NaN	NaN	none	none	NaN	0	0
415	2	33	1	auto	0.5	NaN	green	1	up	up	GLO	none	far	0	intact	none	none	0	0	NaN	NaN	NaN	none	none	NaN	0	0
415	2	34	1	auto	0.5	NaN	green	0	right	right	GLO	none	close	1	intact	intact	Jan13_fps_avg_aud.mp4	0	0	NaN	NaN	NaN	none	none	NaN	0	0
415	2	35	1	auto	0.5	NaN	blue	0	up	up	GLO	none	far	0	intact	none	none	0	0	NaN	NaN	NaN	none	none	NaN	0	0
415	2	36	1	auto	0.5	NaN	blue	1	left	left	GLO	none	far	1	intact	intact	3787d5d7-bc65-4720-b93c-344c8ca85f75_fps_avg_aud.mp4	0	0	NaN	NaN	NaN	none	none	NaN	0	0
415	2	37	1	auto	0.5	NaN	blue	1	left	left	GLO	none	far	1	intact	intact	8d515f52-784f-4547-b4bd-dfedabc9c31a_fps_avg_aud.mp4	0	0	NaN	NaN	NaN	none	none	NaN	0	0
415	2	38	1	auto	0.5	NaN	blue	0	up	up	GLO	none	close	1	intact	intact	aef9b535-d7ad-47d4-adb8-d3ac2abf6652_fps_avg_aud.mp4	0	0	NaN	NaN	NaN	none	none	NaN	0	0
415	2	39	1	auto	0.5	NaN	blue	1	left	left	GLO	none	close	1	intact	intact	Jun17_fps_avg_aud.mp4	0	0	NaN	NaN	NaN	none	none	NaN	0	0
415	2	40	1	auto	0.5	NaN	blue	0	up	up	GLO	none	close	1	intact	intact	c1a7aae7-8c3e-4488-9566-07a14f982e35_fps_avg_aud.mp4	0	0	NaN	NaN	NaN	none	none	NaN	0	0
415	2	41	1	auto	0.5	NaN	yellow	0	left	left	GLO	none	far	1	intact	intact	b1dabac3-204f-4571-b892-69eb87e805d0_fps_avg_aud.mp4	0	0	NaN	NaN	NaN	none	none	NaN	0	0
415	2	42	1	auto	0.5	NaN	blue	0	up	up	GLO	none	close	0	intact	none	none	0	0	NaN	NaN	NaN	none	none	NaN	0	0
415	2	43	1	auto	0.5	NaN	yellow	1	right	right	GLO	none	far	1	intact	intact	58fa2b05-06d6-4325-b14b-27b0a9645ea5_fps_avg_aud.mp4	0	0	NaN	NaN	NaN	none	none	NaN	0	0
415	2	44	1	auto	0.5	NaN	green	1	left	left	GLO	none	far	0	intact	none	none	0	0	NaN	NaN	NaN	none	none	NaN	0	0
415	2	45	1	auto	0.5	NaN	red	1	right	right	GLO	none	far	0	intact	none	none	0	0	NaN	NaN	NaN	none	none	NaN	0	0
415	2	46	1	auto	0.5	NaN	yellow	0	left	left	GLO	none	close	0	intact	none	none	0	0	NaN	NaN	NaN	none	none	NaN	0	0
415	2	47	1	auto	0.5	NaN	yellow	0	left	left	GLO	none	far	1	intact	intact	July6_fps_avg_aud.mp4	0	0	NaN	NaN	NaN	none	none	NaN	0	0
415	2	48	1	auto	0.5	NaN	yellow	0	left	left	GLO	none	far	1	intact	intact	06166668-1aac-4d03-b242-d4a5635a694b_fps_avg_aud.mp4	0	0	NaN	NaN	NaN	none	none	NaN	0	0
415	2	49	1	auto	0.5	NaN	red	0	down	down	GLO	none	far	1	intact	intact	10110e03-827e-4196-8676-097b68a947cd_fps_avg_aud.mp4	0	0	NaN	NaN	NaN	none	none	NaN	0	0
415	2	50	1	auto	0.5	NaN	green	0	right	right	GLO	none	close	1	intact	intact	54741aa9-fdb7-4546-b60b-078b0914ddd1_fps_avg_aud.mp4	0	0	NaN	NaN	NaN	none	none	NaN	0	0
415	2	51	1	auto	0.5	NaN	yellow	1	up	up	GLO	none	close	1	intact	intact	January_2016_(4)_fps_avg_aud.mp4	0	0	NaN	NaN	NaN	none	none	NaN	0	0
415	2	52	1	auto	0.5	NaN	green	0	right	right	GLO	none	close	0	intact	none	none	0	0	NaN	NaN	NaN	none	none	NaN	0	0
415	2	53	1	auto	0.5	NaN	green	0	right	right	GLO	none	far	0	intact	none	none	0	0	NaN	NaN	NaN	none	none	NaN	0	0
415	2	54	1	auto	0.5	NaN	red	0	down	down	GLO	none	close	1	intact	intact	cfde3402-3742-4dda-82a3-7c69c497e0f8_fps_avg_aud.mp4	0	0	NaN	NaN	NaN	none	none	NaN	0	0
415	2	55	1	auto	0.5	NaN	blue	1	left	left	GLO	none	close	1	intact	intact	Jnauary_2016_fps_avg_aud.mp4	0	0	NaN	NaN	NaN	none	none	NaN	0	0
415	2	56	1	auto	0.5	NaN	green	0	right	right	GLO	none	far	1	intact	intact	October_14_2016_fps_avg_aud.mp4	0	0	NaN	NaN	NaN	none	none	NaN	0	0
415	2	57	1	auto	0.5	NaN	green	0	right	right	GLO	none	close	1	intact	intact	4492b756-14ac-4694-8c38-fa7503b864e1_fps_avg_aud.mp4	0	0	NaN	NaN	NaN	none	none	NaN	0	0
415	2	58	1	auto	0.5	NaN	red	1	right	right	GLO	none	far	1	intact	intact	June_2016_fps_avg_aud.mp4	0	0	NaN	NaN	NaN	none	none	NaN	0	0
415	2	59	1	auto	0.5	NaN	red	1	left	left	GLO	none	close	1	intact	intact	Feb19_fps_avg_aud.mp4	0	0	NaN	NaN	NaN	none	none	NaN	0	0
415	2	60	1	auto	0.5	NaN	green	1	left	left	GLO	none	far	0	intact	none	none	0	0	NaN	NaN	NaN	none	none	NaN	0	0
415	2	61	1	auto	0.5	NaN	green	0	right	right	GLO	none	close	0	intact	none	none	0	0	NaN	NaN	NaN	none	none	NaN	0	0
415	2	62	1	auto	0.5	NaN	blue	0	up	up	GLO	none	far	0	intact	none	none	0	0	NaN	NaN	NaN	none	none	NaN	0	0
415	2	63	1	auto	0.5	NaN	red	1	up	up	GLO	none	far	1	intact	intact	may_2015_fps_avg_aud.mp4	0	0	NaN	NaN	NaN	none	none	NaN	0	0
415	2	64	1	auto	0.5	NaN	red	1	right	right	GLO	none	far	0	intact	none	none	0	0	NaN	NaN	NaN	none	none	NaN	0	0
415	2	65	1	auto	0.5	NaN	yellow	0	left	left	GLO	none	close	0	intact	none	none	0	0	NaN	NaN	NaN	none	none	NaN	0	0
415	2	66	1	auto	0.5	NaN	blue	0	up	up	GLO	none	far	1	intact	intact	9e99d645-5200-4298-9c0f-4a18ab570a6d_fps_avg_aud.mp4	0	0	NaN	NaN	NaN	none	none	NaN	0	0
415	2	67	1	auto	0.5	NaN	red	0	down	down	GLO	none	far	1	intact	intact	Jan1_fps_avg_aud.mp4	0	0	NaN	NaN	NaN	none	none	NaN	0	0
415	2	68	1	auto	0.5	NaN	green	0	right	right	GLO	none	close	1	intact	intact	18d4ec1c-7f36-4828-8594-27b6bfd3c309_fps_avg_aud.mp4	0	0	NaN	NaN	NaN	none	none	NaN	0	0
415	2	69	1	auto	0.5	NaN	yellow	0	left	left	GLO	none	far	0	intact	none	none	0	0	NaN	NaN	NaN	none	none	NaN	0	0
415	2	70	1	auto	0.5	NaN	red	1	right	right	GLO	none	close	0	intact	none	none	0	0	NaN	NaN	NaN	none	none	NaN	0	0
415	2	71	1	auto	0.5	NaN	yellow	0	left	left	GLO	none	far	0	intact	none	none	0	0	NaN	NaN	NaN	none	none	NaN	0	0
415	2	72	1	auto	0.5	NaN	red	0	down	down	GLO	none	far	0	intact	none	none	0	0	NaN	NaN	NaN	none	none	NaN	0	0
415	2	73	1	auto	0.5	NaN	red	0	down	down	GLO	none	far	1	intact	intact	May_2016_(1)_fps_avg_aud.mp4	0	0	NaN	NaN	NaN	none	none	NaN	0	0
415	2	74	1	auto	0.5	NaN	red	1	right	right	GLO	none	far	1	intact	intact	a24b6226-d6e8-4655-b874-d79fefacec8c_fps_avg_aud.mp4	0	0	NaN	NaN	NaN	none	none	NaN	0	0
415	2	75	1	auto	0.5	NaN	blue	1	left	left	GLO	none	close	1	intact	intact	Nmarch1222015_fps_avg_aud.mp4	0	0	NaN	NaN	NaN	none	none	NaN	0	0
415	2	76	1	auto	0.5	NaN	yellow	1	down	down	GLO	none	far	1	intact	intact	54a93c98-7413-4e40-aca3-12bf7a6220c7_fps_avg_aud.mp4	0	0	NaN	NaN	NaN	none	none	NaN	0	0
415	2	77	1	auto	0.5	NaN	red	0	down	down	GLO	none	far	1	intact	intact	b03a76d5-df04-4f1c-a621-096b7428dc43_fps_avg_aud.mp4	0	0	NaN	NaN	NaN	none	none	NaN	0	0
415	2	78	1	auto	0.5	NaN	green	0	right	right	GLO	none	far	1	intact	intact	Feb13_fps_avg_aud.mp4	0	0	NaN	NaN	NaN	none	none	NaN	0	0
415	2	79	1	auto	0.5	NaN	red	0	down	down	GLO	none	close	1	intact	intact	34317ec5-8b9d-4b06-8954-49f3b4c2619c_fps_avg_aud.mp4	0	0	NaN	NaN	NaN	none	none	NaN	0	0
415	2	80	1	auto	0.5	NaN	yellow	1	right	right	GLO	none	far	1	intact	intact	d1495dc6-3264-40ae-807f-007f3ab4bdee_fps_avg_aud.mp4	0	0	NaN	NaN	NaN	none	none	NaN	0	0
415	2	81	1	auto	0.5	NaN	yellow	1	up	up	GLO	none	far	0	intact	none	none	0	0	NaN	NaN	NaN	none	none	NaN	0	0
415	2	82	1	auto	0.5	NaN	blue	1	left	left	GLO	none	far	0	intact	none	none	0	0	NaN	NaN	NaN	none	none	NaN	0	0
415	2	83	1	auto	0.5	NaN	red	0	down	down	GLO	none	close	0	intact	none	none	0	0	NaN	NaN	NaN	none	none	NaN	0	0
415	2	84	1	auto	0.5	NaN	green	0	right	right	GLO	none	close	1	intact	intact	a5a4b0ce-b05f-41d9-b172-00b13f0d8828_fps_avg_aud.mp4	0	0	NaN	NaN	NaN	none	none	NaN	0	0
415	2	85	1	auto	0.5	NaN	red	0	down	down	GLO	none	close	1	intact	intact	ac9d3ec9-e996-4c12-9cee-27057f644981_fps_avg_aud.mp4	0	0	NaN	NaN	NaN	none	none	NaN	0	0
415	2	86	1	auto	0.5	NaN	blue	0	up	up	GLO	none	far	0	intact	none	none	0	0	NaN	NaN	NaN	none	none	NaN	0	0
415	2	87	1	auto	0.5	NaN	yellow	0	left	left	GLO	none	close	1	intact	intact	November_14_2016_fps_avg_aud.mp4	0	0	NaN	NaN	NaN	none	none	NaN	0	0
415	2	88	1	auto	0.5	NaN	green	0	right	right	GLO	none	close	0	intact	none	none	0	0	NaN	NaN	NaN	none	none	NaN	0	0
415	2	89	1	auto	0.5	NaN	yellow	0	left	left	GLO	none	close	1	intact	intact	May27_fps_avg_aud.mp4	0	0	NaN	NaN	NaN	none	none	NaN	0	0
415	2	90	1	auto	0.5	NaN	green	0	right	right	GLO	none	close	1	intact	intact	jun14_fps_avg_aud.mp4	0	0	NaN	NaN	NaN	none	none	NaN	0	0
415	2	91	1	auto	0.5	NaN	red	0	down	down	GLO	none	far	0	intact	none	none	0	0	NaN	NaN	NaN	none	none	NaN	0	0
415	2	92	1	auto	0.5	NaN	green	1	down	down	GLO	none	close	1	intact	intact	f7063dab-b99f-4ced-99a1-d8e067de3ccd_fps_avg_aud.mp4	0	0	NaN	NaN	NaN	none	none	NaN	0	0
415	2	93	1	auto	0.5	NaN	red	1	up	up	GLO	none	far	1	intact	intact	ed5c9b46-1903-43ac-bc9d-4681004c3550_fps_avg_aud.mp4	0	0	NaN	NaN	NaN	none	none	NaN	0	0
415	3	1	1	self	1.5	1.51698	green	0	right	right	GLO	right	far	1	intact	intact	648cf5a2-5dc9-46b3-bf61-9e51533fa6ad_fps_avg_aud.mp4	1	406	2.30883	1.66037	1	left	yellow	0	0	0
415	3	2	1	self	1.5	1.51067	blue	0	up	up	GLO	left	close	1	intact	intact	Dec31_fps_avg_aud.mp4	1	384	2.98388	1.65848	1	up	blue	1	0	0
415	3	3	1	self	1.5	1.51539	yellow	1	up	up	GLO	right	far	1	intact	intact	May19_fps_avg_aud.mp4	0	0	0.96419	0	1	left	yellow	1	0	0
415	3	4	1	self	1.5	1.51151	red	1	up	up	GLO	left	close	1	intact	intact	August_3_2016_fps_avg_aud.mp4	1	251	1.44747	1.3321	1	down	red	1	0	0
415	3	5	1	self	1.5	1.51305	green	1	down	down	GLO	right	far	1	intact	intact	7fe27e44-a1be-4335-89c2-e510e239df64_fps_avg_aud.mp4	1	48	1.96096	0.235913	2	right	green	1	0	0
415	3	6	1	self	1.5	1.51354	yellow	1	right	right	GLO	left	close	1	intact	intact	c59b0a3f-09df-4660-a241-ebba5fb01e57_fps_avg_aud.mp4	1	228	2.83148	0.861305	4	left	yellow	1	0	0
415	3	7	1	self	1.5	1.51472	red	0	down	down	GLO	left	close	1	intact	intact	e3992607-d25b-430c-bd18-12cb4a6d1b28_fps_avg_aud.mp4	1	172	1.74174	0.669288	2	down	red	1	0	0
415	3	8	1	self	1.5	1.51386	blue	0	up	up	GLO	right	close	1	intact	intact	5e28083f-f416-4168-bfde-2e1ddfaaf60e_fps_avg_aud.mp4	1	232	2.37675	0.851174	2	up	blue	1	0	0
415	3	9	1	self	0.5	0.513829	yellow	0	left	left	GLO	right	far	1	intact	intact	august_15_2016_fps_avg_aud.mp4	0	0	0.665088	0	1	left	yellow	1	0	0
415	3	10	1	self	0.5	0.5103	red	1	left	left	GLO	left	close	1	intact	intact	de76edf3-7c24-4386-8e6c-01dd4c15291d_fps_avg_aud.mp4	0	0	2.51393	0	1	down	red	1	0	0
415	3	11	1	self	0.5	0.512476	yellow	0	left	left	GLO	left	close	1	intact	intact	June7_fps_avg_aud.mp4	0	0	0.964711	0	1	left	yellow	1	0	0
415	3	12	1	self	0.5	0.514726	blue	1	left	left	GLO	right	far	1	intact	intact	Apr1_fps_avg_aud.mp4	0	0	1.36065	0	1	up	blue	1	0	0
415	3	13	1	self	0.5	0.513352	yellow	1	right	right	GLO	left	far	1	intact	intact	65e09f1a-138e-4ec0-8b5b-5702c47341ad_fps_avg_aud.mp4	0	0	0.881073	0	1	left	yellow	1	0	0
415	3	14	1	self	0.5	0.513052	green	0	right	right	GLO	right	close	1	intact	intact	326ee18c-0cd5-4c39-ac0f-082f53449aa4_fps_avg_aud.mp4	0	0	0.731902	0	1	right	green	1	0	0
415	3	15	1	self	0.5	0.511235	red	0	down	down	GLO	left	far	1	intact	intact	039e9adf-0d8d-4d86-a59c-e7770b0ae616_fps_avg_aud.mp4	0	0	0.463828	0	1	down	red	1	0	0
415	3	16	1	self	0.5	0.510589	yellow	1	right	right	GLO	right	far	1	intact	intact	Nov25_fps_avg_aud.mp4	0	0	1.04625	0	1	left	yellow	1	0	0
415	3	17	1	self	0.5	0.514854	red	0	down	down	GLO	right	far	1	intact	intact	9df4c83d-45cc-4501-be4d-279a04192ba4_fps_avg_aud.mp4	0	0	0.978176	0	1	down	red	1	0	0
415	3	18	1	self	0.5	0.510153	red	1	up	up	GLO	right	far	1	intact	intact	241df9f5-fbf5-49b9-a03c-764ba4b6ace9_fps_avg_aud.mp4	1	114	0.830349	0.55024	1	down	red	1	0	0
415	3	19	1	self	0.5	0.514548	yellow	1	down	down	GLO	left	far	1	intact	intact	bd5cc988-d64f-435a-a1d7-3a872e473f76_fps_avg_aud.mp4	1	0	0.998011	0	1	left	yellow	1	0	0
415	3	20	1	self	0.5	0.512366	yellow	0	left	left	GLO	left	far	1	intact	intact	Jun1_fps_avg_aud.mp4	0	0	0.514285	0	1	left	yellow	1	0	0
415	3	21	1	self	0.5	0.510625	green	0	right	right	GLO	left	close	1	intact	intact	Jnauary_2016_fps_avg_aud.mp4	0	0	0.97923	0	1	right	green	1	0	0
415	3	22	1	self	0.5	0.512796	red	0	down	down	GLO	right	far	1	intact	intact	4d681112-07b2-4265-a7e1-d188bc4f8511_fps_avg_aud.mp4	0	0	0.690196	0	1	down	red	1	0	0
415	3	23	1	self	0.5	0.514153	yellow	1	up	up	GLO	right	close	1	intact	intact	eccee75e-3f7b-45d7-b4a7-10ac4fce267e_fps_avg_aud.mp4	0	0	1.24926	0	1	left	yellow	1	0	0
415	3	24	1	self	0.5	0.510728	red	1	right	right	GLO	right	far	1	intact	intact	deff750b-b4a4-440e-a47d-eb4c56f93a9d_fps_avg_aud.mp4	0	0	0.882578	0	1	down	red	1	0	0
415	3	25	1	self	0.5	0.511848	yellow	0	left	left	GLO	right	far	1	intact	intact	April_2015_fps_avg_aud.mp4	0	0	1.00543	0	1	left	yellow	1	0	0
415	3	26	1	self	0.5	NaN	blue	0	up	up	GLO	none	far	1	intact	intact	Sep20_fps_avg_aud.mp4	0	0	NaN	NaN	NaN	none	none	NaN	0	0
415	3	27	1	self	0.5	NaN	blue	0	up	up	GLO	none	far	1	intact	intact	0634b486-cb5f-4c95-88ac-759458166474_fps_avg_aud.mp4	0	0	NaN	NaN	NaN	none	none	NaN	0	0
415	3	28	1	self	0.5	NaN	green	1	left	left	GLO	none	close	1	intact	intact	17cc3183-9fa6-42da-8814-3bcbf562eceb_fps_avg_aud.mp4	0	0	NaN	NaN	NaN	none	none	NaN	0	0
415	3	29	1	self	0.5	NaN	green	0	right	right	GLO	none	close	1	intact	intact	69d4f1be-9d50-4cd5-8475-2fb4a62d07e2_fps_avg_aud.mp4	0	0	NaN	NaN	NaN	none	none	NaN	0	0
415	3	30	1	self	0.5	NaN	blue	1	right	right	GLO	none	close	1	intact	intact	May8_fps_avg_aud.mp4	0	0	NaN	NaN	NaN	none	none	NaN	0	0
415	3	31	1	self	0.5	NaN	blue	0	up	up	GLO	none	far	1	intact	intact	Aug10_fps_avg_aud.mp4	0	0	NaN	NaN	NaN	none	none	NaN	0	0
415	3	32	1	self	0.5	NaN	blue	0	up	up	GLO	none	far	1	intact	intact	July2_fps_avg_aud.mp4	0	0	NaN	NaN	NaN	none	none	NaN	0	0
415	3	33	1	self	0.5	NaN	green	1	left	left	GLO	none	far	1	intact	intact	may_2015_fps_avg_aud.mp4	0	0	NaN	NaN	NaN	none	none	NaN	0	0
415	3	34	1	self	0.5	NaN	blue	0	up	up	GLO	none	close	1	intact	intact	79c2a399-1c19-4b6a-a7be-ad19cd183d03_fps_avg_aud.mp4	0	0	NaN	NaN	NaN	none	none	NaN	0	0
415	3	35	1	self	0.5	NaN	red	1	up	up	GLO	none	far	1	intact	intact	33a33f4c-72c6-457d-828e-a576d3e3a8e3_fps_avg_aud.mp4	0	0	NaN	NaN	NaN	none	none	NaN	0	0
415	3	36	1	self	0.5	NaN	yellow	0	left	left	GLO	none	close	1	intact	intact	f88c90ff-41f4-4220-a305-426fa931932f_fps_avg_aud.mp4	0	0	NaN	NaN	NaN	none	none	NaN	0	0
415	3	37	1	self	0.5	NaN	red	0	down	down	GLO	none	close	1	intact	intact	May28_fps_avg_aud.mp4	0	0	NaN	NaN	NaN	none	none	NaN	0	0
415	3	38	1	self	0.5	NaN	yellow	1	up	up	GLO	none	far	1	intact	intact	june_18_2015_fps_avg_aud.mp4	0	0	NaN	NaN	NaN	none	none	NaN	0	0
415	3	39	1	self	0.5	NaN	blue	1	down	down	GLO	none	close	1	intact	intact	Nov11_fps_avg_aud.mp4	0	0	NaN	NaN	NaN	none	none	NaN	0	0
415	3	40	1	self	0.5	NaN	green	1	left	left	GLO	none	far	1	intact	intact	Nov28_fps_avg_aud.mp4	0	0	NaN	NaN	NaN	none	none	NaN	0	0
415	3	41	1	self	0.5	NaN	red	0	down	down	GLO	none	close	1	intact	intact	34317ec5-8b9d-4b06-8954-49f3b4c2619c_fps_avg_aud.mp4	0	0	NaN	NaN	NaN	none	none	NaN	0	0
415	3	42	1	self	0.5	NaN	green	0	right	right	GLO	none	far	1	intact	intact	919b74e0-dd30-4685-b063-8556e1e10c55_fps_avg_aud.mp4	0	0	NaN	NaN	NaN	none	none	NaN	0	0
415	3	43	1	self	0.5	NaN	blue	0	up	up	GLO	none	close	1	intact	intact	a390325a-c9a6-4240-9459-3271767e2980_fps_avg_aud.mp4	0	0	NaN	NaN	NaN	none	none	NaN	0	0
415	3	44	1	self	0.5	NaN	green	0	right	right	GLO	none	far	1	intact	intact	e6c6cdbe-2a63-4eeb-b544-6fc0a25dc157_fps_avg_aud.mp4	0	0	NaN	NaN	NaN	none	none	NaN	0	0
415	3	45	1	self	0.5	NaN	green	1	up	up	GLO	none	close	1	intact	intact	7cff1761-7eb4-4352-9fd6-437bff370f37_fps_avg_aud.mp4	0	0	NaN	NaN	NaN	none	none	NaN	0	0
415	3	46	1	self	0.5	NaN	red	0	down	down	GLO	none	far	1	intact	intact	4d7a8a8c-063f-4a89-bd24-c32713b6ffa7_fps_avg_aud.mp4	0	0	NaN	NaN	NaN	none	none	NaN	0	0
415	3	47	1	self	0.5	NaN	red	0	down	down	GLO	none	close	1	intact	intact	Feb27_fps_avg_aud.mp4	0	0	NaN	NaN	NaN	none	none	NaN	0	0
415	3	48	1	self	0.5	NaN	blue	0	up	up	GLO	none	close	1	intact	intact	0fca764b-7147-4307-96dc-cc1807afd905_fps_avg_aud.mp4	0	0	NaN	NaN	NaN	none	none	NaN	0	0
415	3	49	1	self	0.5	NaN	red	1	right	right	GLO	none	close	1	intact	intact	32a37ce7-a199-40eb-b5c5-b974866ffc28_fps_avg_aud.mp4	0	0	NaN	NaN	NaN	none	none	NaN	0	0
415	3	50	1	self	0.5	NaN	red	0	down	down	GLO	none	close	1	intact	intact	cad0ae4f-8fd8-463e-9880-f0c1f9462bac_fps_avg_aud.mp4	0	0	NaN	NaN	NaN	none	none	NaN	0	0
415	3	51	1	self	0.5	NaN	green	1	up	up	GLO	none	far	1	intact	intact	aef9b535-d7ad-47d4-adb8-d3ac2abf6652_fps_avg_aud.mp4	0	0	NaN	NaN	NaN	none	none	NaN	0	0
415	3	52	1	self	0.5	NaN	blue	1	right	right	GLO	none	close	1	intact	intact	e5ba6207-d3a1-4e68-9c36-3fbb5658f232_fps_avg_aud.mp4	0	0	NaN	NaN	NaN	none	none	NaN	0	0
415	3	53	1	self	0.5	NaN	green	0	right	right	GLO	none	close	1	intact	intact	Jan8_fps_avg_aud.mp4	0	0	NaN	NaN	NaN	none	none	NaN	0	0
415	3	54	1	self	0.5	NaN	green	0	right	right	GLO	none	close	1	intact	intact	b5bcd3a2-267e-4413-b730-c3121b8457ab_fps_avg_aud.mp4	0	0	NaN	NaN	NaN	none	none	NaN	0	0
415	3	55	1	self	0.5	NaN	blue	0	up	up	GLO	none	far	1	intact	intact	d908683d-e7f6-43aa-ac1d-27222b281fc0_fps_avg_aud.mp4	0	0	NaN	NaN	NaN	none	none	NaN	0	0
415	3	56	1	self	0.5	NaN	red	1	left	left	GLO	none	far	1	intact	intact	cef9c179-f64d-4543-875f-6808da2329b6_fps_avg_aud.mp4	0	0	NaN	NaN	NaN	none	none	NaN	0	0
415	3	57	1	self	0.5	NaN	green	0	right	right	GLO	none	far	1	intact	intact	beb38bd6-976e-468f-9f23-b6b41f12ce11_fps_avg_aud.mp4	0	0	NaN	NaN	NaN	none	none	NaN	0	0
415	3	58	1	self	0.5	NaN	blue	0	up	up	GLO	none	close	1	intact	intact	1b336470-7a10-4cc7-aee4-3a5e6e6e551e_fps_avg_aud.mp4	0	0	NaN	NaN	NaN	none	none	NaN	0	0
415	3	59	1	self	0.5	NaN	green	0	right	right	GLO	none	close	1	intact	intact	02831e99-5ac8-4fc5-9e76-9a04224fb33e_fps_avg_aud.mp4	0	0	NaN	NaN	NaN	none	none	NaN	0	0
415	3	60	1	self	0.5	NaN	yellow	1	down	down	GLO	none	close	1	intact	intact	2ad8c2cc-f109-45c5-925b-f1af257730e3_fps_avg_aud.mp4	0	0	NaN	NaN	NaN	none	none	NaN	0	0
415	3	61	1	self	0.5	NaN	red	1	up	up	GLO	none	far	1	intact	intact	cb6ef54e-2b4c-4064-8d68-1ca2b2e8a47c_fps_avg_aud.mp4	0	0	NaN	NaN	NaN	none	none	NaN	0	0
415	3	62	1	self	0.5	NaN	red	0	down	down	GLO	none	far	1	intact	intact	Nov7_fps_avg_aud.mp4	0	0	NaN	NaN	NaN	none	none	NaN	0	0
415	3	63	1	self	0.5	NaN	yellow	0	left	left	GLO	none	close	1	intact	intact	5b4edd74-dc10-4920-b508-c0b2f21238c3_fps_avg_aud.mp4	0	0	NaN	NaN	NaN	none	none	NaN	0	0
415	3	64	1	self	0.5	NaN	yellow	0	left	left	GLO	none	close	1	intact	intact	5f534c39-dfe8-4a8d-a678-c406bcf9154d_fps_avg_aud.mp4	0	0	NaN	NaN	NaN	none	none	NaN	0	0
415	3	65	1	self	0.5	NaN	green	1	up	up	GLO	none	far	1	intact	intact	fc2af016-0a80-4148-823b-d9176c33cf3a_fps_avg_aud.mp4	0	0	NaN	NaN	NaN	none	none	NaN	0	0
415	3	66	1	self	0.5	NaN	green	1	up	up	GLO	none	far	1	intact	intact	b23c9ea6-adb6-492c-965f-16af3f7801e9_fps_avg_aud.mp4	0	0	NaN	NaN	NaN	none	none	NaN	0	0
415	3	67	1	self	0.5	NaN	green	0	right	right	GLO	none	far	1	intact	intact	e1d4becd-1ca6-41b0-82ab-58d50a368204_fps_avg_aud.mp4	0	0	NaN	NaN	NaN	none	none	NaN	0	0
415	3	68	1	self	0.5	NaN	red	0	down	down	GLO	none	close	1	intact	intact	b4d84d1f-224c-4414-9045-0f7e4fc94012_fps_avg_aud.mp4	0	0	NaN	NaN	NaN	none	none	NaN	0	0
415	3	69	1	self	0.5	NaN	red	1	left	left	GLO	none	far	1	intact	intact	May_2016_fps_avg_aud.mp4	0	0	NaN	NaN	NaN	none	none	NaN	0	0
415	3	70	1	self	0.5	NaN	green	0	right	right	GLO	none	close	1	intact	intact	Jul4_fps_avg_aud.mp4	0	0	NaN	NaN	NaN	none	none	NaN	0	0
415	3	71	1	self	0.5	NaN	green	0	right	right	GLO	none	close	1	intact	intact	6aaea3fa-b030-41d1-8780-a1c1120cd763_fps_avg_aud.mp4	0	0	NaN	NaN	NaN	none	none	NaN	0	0
415	3	72	1	self	0.5	NaN	blue	0	up	up	GLO	none	far	1	intact	intact	b1ade3a7-f9fd-4229-8a80-df334c184531_fps_avg_aud.mp4	0	0	NaN	NaN	NaN	none	none	NaN	0	0
415	3	73	1	self	0.5	NaN	red	1	right	right	GLO	none	far	1	intact	intact	Feb7_fps_avg_aud.mp4	0	0	NaN	NaN	NaN	none	none	NaN	0	0
415	3	74	1	self	0.5	NaN	blue	1	down	down	GLO	none	far	1	intact	intact	Otober_11_2016_fps_avg_aud.mp4	0	0	NaN	NaN	NaN	none	none	NaN	0	0
415	3	75	1	self	0.5	NaN	yellow	1	down	down	GLO	none	far	1	intact	intact	2016_fps_avg_aud.mp4	0	0	NaN	NaN	NaN	none	none	NaN	0	0
415	3	76	1	self	0.5	NaN	yellow	1	down	down	GLO	none	close	1	intact	intact	may_28_2015_fps_avg_aud.mp4	0	0	NaN	NaN	NaN	none	none	NaN	0	0
415	3	77	1	self	0.5	NaN	green	0	right	right	GLO	none	close	1	intact	intact	0ab2bdff-924c-46d2-b610-671d6f4f673e_fps_avg_aud.mp4	0	0	NaN	NaN	NaN	none	none	NaN	0	0
415	3	78	1	self	0.5	NaN	yellow	0	left	left	GLO	none	close	1	intact	intact	d0082a79-d6fc-4855-80df-f443f4a14e37_fps_avg_aud.mp4	0	0	NaN	NaN	NaN	none	none	NaN	0	0
415	3	79	1	self	0.5	NaN	yellow	0	left	left	GLO	none	close	1	intact	intact	b11b47e5-c9ce-4ff0-9f69-98698858b2d8_fps_avg_aud.mp4	0	0	NaN	NaN	NaN	none	none	NaN	0	0
415	3	80	1	self	0.5	NaN	yellow	1	right	right	GLO	none	close	1	intact	intact	ac2b9dfa-7a4b-40ef-9499-c883a9127ad7_fps_avg_aud.mp4	0	0	NaN	NaN	NaN	none	none	NaN	0	0
415	3	81	1	self	0.5	NaN	green	0	right	right	GLO	none	close	1	intact	intact	11f7e237-860e-4d5b-9743-89fc16a3360b_fps_avg_aud.mp4	0	0	NaN	NaN	NaN	none	none	NaN	0	0
415	3	82	1	self	0.5	NaN	red	1	up	up	GLO	none	far	1	intact	intact	cc0b25a9-3d1b-4c67-b1c5-5f27d60e59cb_fps_avg_aud.mp4	0	0	NaN	NaN	NaN	none	none	NaN	0	0
415	3	83	1	self	0.5	NaN	red	0	down	down	GLO	none	far	1	intact	intact	6d873e1d-8ad7-4688-a181-c3322982e4a6_fps_avg_aud.mp4	0	0	NaN	NaN	NaN	none	none	NaN	0	0
415	3	84	1	self	0.5	NaN	green	1	down	down	GLO	none	far	1	intact	intact	210cd477-4b9d-42a8-810f-6df0d7615942_fps_avg_aud.mp4	0	0	NaN	NaN	NaN	none	none	NaN	0	0
415	3	85	1	self	0.5	NaN	blue	1	down	down	GLO	none	far	1	intact	intact	a286ef4d-f7bf-4cc1-b7c2-912b53e8ea4a_fps_avg_aud.mp4	0	0	NaN	NaN	NaN	none	none	NaN	0	0
415	3	86	1	self	0.5	NaN	blue	1	right	right	GLO	none	far	1	intact	intact	71f3eec1-1d03-4a49-954e-7a809baeb44b_fps_avg_aud.mp4	0	0	NaN	NaN	NaN	none	none	NaN	0	0
415	3	87	1	self	0.5	NaN	blue	1	left	left	GLO	none	close	1	intact	intact	99e5912a-fa6d-43dc-a1df-f887e6ef8a00_fps_avg_aud.mp4	0	0	NaN	NaN	NaN	none	none	NaN	0	0
415	3	88	1	self	0.5	NaN	green	0	right	right	GLO	none	close	1	intact	intact	10969b38-242c-4207-88e8-6564613d4d88(1)_fps_avg_aud.mp4	0	0	NaN	NaN	NaN	none	none	NaN	0	0
415	3	89	1	self	0.5	NaN	yellow	0	left	left	GLO	none	close	1	intact	intact	Mar25_fps_avg_aud.mp4	0	0	NaN	NaN	NaN	none	none	NaN	0	0
415	3	90	1	self	0.5	NaN	red	0	down	down	GLO	none	far	1	intact	intact	1bfb8d40-5675-4acc-87b4-a7f11b6242ea_fps_avg_aud.mp4	0	0	NaN	NaN	NaN	none	none	NaN	0	0
415	3	91	1	self	0.5	NaN	green	0	right	right	GLO	none	close	1	intact	intact	ac670a32-9758-4aa8-b876-775cfe4f2e47_fps_avg_aud.mp4	0	0	NaN	NaN	NaN	none	none	NaN	0	0
415	3	92	1	self	0.5	NaN	green	1	down	down	GLO	none	close	1	intact	intact	ede4a096-21dc-4ed4-9b28-6df0a7f6fe6b_fps_avg_aud.mp4	0	0	NaN	NaN	NaN	none	none	NaN	0	0
415	3	93	1	self	0.5	NaN	red	1	right	right	GLO	none	close	1	intact	intact	16fe28b7-019b-49e7-9b4b-6b9fba85fe3d_fps_avg_aud.mp4	0	0	NaN	NaN	NaN	none	none	NaN	0	0
415	4	1	0	self	1.5	1.516	blue	0	up	up	GLO	left	far	1	intact	intact	June7_fps_avg_aud.mp4	0	0	0.948342	0	1	up	blue	1	0.01	high
415	4	2	0	self	1.5	1.51164	yellow	1	right	right	GLO	left	close	1	intact	intact	cad0ae4f-8fd8-463e-9880-f0c1f9462bac_fps_avg_aud.mp4	0	0	0.791296	0	1	left	yellow	1	0.02	high
415	4	3	0	self	1.5	1.51412	yellow	1	right	right	GLO	right	far	1	intact	intact	5022b285-2c2f-4e4f-824d-5e45be82c1a3_fps_avg_aud.mp4	0	0	0.523308	0	1	left	yellow	1	0.03	high
415	4	4	0	self	1.5	1.51269	blue	1	left	left	GLO	right	close	1	intact	intact	18d4ec1c-7f36-4828-8594-27b6bfd3c309_fps_avg_aud.mp4	0	0	0.731134	0	1	up	blue	1	0.04	high
415	4	5	0	self	1.5	1.5126	yellow	0	left	left	GLO	left	close	1	intact	intact	4d617426-ab8c-4125-9dcf-178529ca54a1_fps_avg_aud.mp4	0	0	0.756848	0	1	left	yellow	1	0.05	high
415	4	6	0	self	1.5	1.51008	green	1	down	down	GLO	left	far	1	intact	intact	Jun20_fps_avg_aud.mp4	0	0	0.748711	0	1	right	green	1	0.06	high
415	4	7	0	self	1.5	1.51194	red	0	down	down	GLO	left	close	1	intact	intact	93875f0f-82c8-483c-b71c-a32b6cf111d2_fps_avg_aud.mp4	0	0	0.614688	0	1	down	red	1	0.07	high
415	4	8	0	self	1.5	1.51185	yellow	1	right	right	GLO	right	close	1	intact	intact	September_2016_(3)_fps_avg_aud.mp4	0	0	0.958217	0	1	left	yellow	1	0.08	high
415	4	9	0	self	1.5	1.51275	blue	0	up	up	GLO	right	close	1	intact	intact	Jan31_fps_avg_aud.mp4	0	0	0.614431	0	1	up	blue	1	0.09	high
415	4	10	0	self	1.5	1.51237	green	1	left	left	GLO	left	close	1	intact	intact	Dec1_fps_avg_aud.mp4	0	0	0.599226	0	1	left	yellow	0	0.08	high
415	4	11	0	self	1.5	1.51213	red	0	down	down	GLO	left	far	1	intact	intact	61be81ef-2338-498f-a09a-fd23aea0f3ec_fps_avg_aud.mp4	0	0	0.760944	0	1	down	red	1	0.09	high
415	4	12	0	self	1.5	1.51171	yellow	1	up	up	GLO	right	far	1	intact	intact	1affd9f8-27af-4e8b-9985-5f3abbee6931_fps_avg_aud.mp4	0	0	0.958794	0	1	left	yellow	1	0.1	high
415	4	13	0	self	1.5	1.51196	red	0	down	down	GLO	left	far	1	intact	intact	Jun24_fps_avg_aud.mp4	0	0	0.680414	0	1	down	red	1	0.11	high
415	4	14	0	self	1.5	1.51194	green	0	right	right	GLO	left	far	1	intact	intact	e4815a42-3a54-463e-aeba-1230af20106d_fps_avg_aud.mp4	0	0	0.692218	0	1	right	green	1	0.12	high
415	4	15	0	self	1.5	1.51218	red	1	left	left	GLO	right	far	1	intact	intact	Apr2_fps_avg_aud.mp4	0	0	0.981895	0	1	down	red	1	0.13	high
415	4	16	0	self	1.5	1.51313	yellow	0	left	left	GLO	right	far	1	intact	intact	Nmarch1222015_fps_avg_aud.mp4	0	0	0.681767	0	1	left	yellow	1	0.14	high
415	4	17	0	self	1.5	1.51146	blue	0	up	up	GLO	left	far	1	intact	intact	af8a1933-c829-43c1-8393-4abd55081a1d_fps_avg_aud.mp4	0	0	0.648508	0	1	up	blue	1	0.15	high
415	4	18	0	self	1.5	1.50999	blue	1	right	right	GLO	left	far	1	intact	intact	Mar25_fps_avg_aud.mp4	0	0	0.715757	0	1	up	blue	1	0.16	high
415	4	19	0	self	1.5	1.51158	green	1	down	down	GLO	left	close	1	intact	intact	179d3911-04f4-4680-91c3-2515ed1f3cc4_fps_avg_aud.mp4	0	0	0.939914	0	1	right	green	1	0.17	high
415	4	20	0	self	1.5	1.51161	red	1	left	left	GLO	left	far	1	intact	intact	Feb29_fps_avg_aud.mp4	0	0	0.962366	0	1	down	red	1	0.18	high
415	4	21	0	self	1.5	1.5121	yellow	1	up	up	GLO	left	far	1	intact	intact	a066c606-67e2-4c5d-b13d-471a21a18633_fps_avg_aud.mp4	0	0	1.18323	0	1	left	yellow	1	0.19	high
415	4	22	0	self	1.5	1.5112	yellow	0	left	left	GLO	left	close	1	intact	intact	a3a57263-6857-435d-87b3-5c44ae53e10a_fps_avg_aud.mp4	0	0	0.630614	0	1	left	yellow	1	0.2	high
415	4	23	0	self	1.5	1.51243	green	0	right	right	GLO	right	far	1	intact	intact	Jun5_fps_avg_aud.mp4	1	64	2.35834	0.224864	2	right	green	1	0.21	high
415	4	24	0	self	1.5	1.51359	blue	0	up	up	GLO	right	close	1	intact	intact	11bc07f6-cbc9-48b9-a240-792e373d6a2a_fps_avg_aud.mp4	0	0	0.616013	0	1	up	blue	1	0.22	high
415	4	25	0	self	1.5	1.51285	blue	1	right	right	GLO	right	far	1	intact	intact	ea8c6916-8b70-4539-be72-29487b43dc07_fps_avg_aud.mp4	0	0	0.698194	0	1	up	blue	1	0.23	high
415	4	26	0	self	1.5	NaN	yellow	1	up	up	GLO	none	close	1	intact	intact	Apr30_fps_avg_aud.mp4	0	0	NaN	NaN	NaN	none	none	NaN	0.23	high
415	4	27	0	self	1.5	NaN	red	0	down	down	GLO	none	close	1	intact	intact	6aaea3fa-b030-41d1-8780-a1c1120cd763_fps_avg_aud.mp4	0	0	NaN	NaN	NaN	none	none	NaN	0.23	high
415	4	28	0	self	1.5	NaN	red	1	left	left	GLO	none	close	1	intact	intact	Jan4_fps_avg_aud.mp4	0	0	NaN	NaN	NaN	none	none	NaN	0.23	high
415	4	29	0	self	1.5	NaN	green	1	down	down	GLO	none	close	1	intact	intact	31c3bae2-faf4-4718-b53b-2e88624b3fa5_fps_avg_aud.mp4	0	0	NaN	NaN	NaN	none	none	NaN	0.23	high
415	4	30	0	self	1.5	NaN	red	0	down	down	GLO	none	far	1	intact	intact	december_2015_(4)_fps_avg_aud.mp4	0	0	NaN	NaN	NaN	none	none	NaN	0.23	high
415	4	31	0	self	1.5	NaN	yellow	1	right	right	GLO	none	close	1	intact	intact	ae455cc0-190e-4a3d-907c-79f241176900_fps_avg_aud.mp4	0	0	NaN	NaN	NaN	none	none	NaN	0.23	high
415	4	32	0	self	1.5	NaN	yellow	0	left	left	GLO	none	far	1	intact	intact	de0e4ce1-0f87-4077-b69c-578049fe4691_fps_avg_aud.mp4	0	0	NaN	NaN	NaN	none	none	NaN	0.23	high
415	4	33	0	self	1.5	NaN	yellow	1	up	up	GLO	none	far	1	intact	intact	f10531c5-f8e7-4f38-bd6c-28ce29d75760_fps_avg_aud.mp4	0	0	NaN	NaN	NaN	none	none	NaN	0.23	high
415	4	34	0	self	1.5	NaN	blue	1	right	right	GLO	none	far	1	intact	intact	b2f11719-a2c9-405c-93a2-abd13a835201_fps_avg_aud.mp4	0	0	NaN	NaN	NaN	none	none	NaN	0.23	high
415	4	35	0	self	1.5	NaN	yellow	1	down	down	GLO	none	far	1	intact	intact	May_2016_(1)_fps_avg_aud.mp4	0	0	NaN	NaN	NaN	none	none	NaN	0.23	high
415	4	36	0	self	1.5	NaN	green	1	up	up	GLO	none	close	1	intact	intact	Feb1_fps_avg_aud.mp4	0	0	NaN	NaN	NaN	none	none	NaN	0.23	high
415	4	37	0	self	1.5	NaN	green	1	up	up	GLO	none	close	1	intact	intact	a525e336-0ec0-4048-92cf-487e44952f5c_fps_avg_aud.mp4	0	0	NaN	NaN	NaN	none	none	NaN	0.23	high
415	5	1	0	self	1.5	1.50904	green	1	left	left	GLO	left	close	1	intact	intact	caf1693c-0eef-47ff-aee9-5348af86759e_fps_avg_aud.mp4	0	0	1.51115	0	1	right	green	1	0.231	low
415	5	2	0	self	1.5	1.51179	blue	1	left	left	GLO	left	far	1	intact	intact	80bae024-90b7-4369-88be-93c1000385ef_fps_avg_aud.mp4	0	0	0.722688	0	1	up	blue	1	0.232	low
415	5	3	0	self	1.5	1.51191	blue	1	down	down	GLO	right	far	1	intact	intact	July23_fps_avg_aud.mp4	0	0	0.564585	0	1	up	blue	1	0.233	low
415	5	4	0	self	1.5	1.51074	red	1	right	right	GLO	right	close	1	intact	intact	21ca1f40-8184-4506-9096-1849a40e04e2_fps_avg_aud.mp4	0	0	1.1744	0	1	down	red	1	0.234	low
415	5	5	0	self	1.5	1.5112	green	0	right	right	GLO	left	far	1	intact	intact	2ad8c2cc-f109-45c5-925b-f1af257730e3_fps_avg_aud.mp4	1	107	2.84674	0.465315	6	right	green	1	0.235	low
415	5	6	0	self	1.5	1.50964	blue	1	right	right	GLO	right	far	1	intact	intact	a444c8a7-2f60-4193-8052-530d5b35ed4c_fps_avg_aud.mp4	0	0	0.799067	0	1	up	blue	1	0.236	low
415	5	7	0	self	1.5	1.51025	blue	0	up	up	GLO	right	close	1	intact	intact	May19_fps_avg_aud.mp4	0	0	0.606233	0	1	up	blue	1	0.237	low
415	5	8	0	self	1.5	1.51033	green	1	down	down	GLO	right	close	1	intact	intact	june_19_2015_fps_avg_aud.mp4	0	0	0.881388	0	1	right	green	1	0.238	low
415	5	9	0	self	1.5	1.51254	blue	1	right	right	GLO	right	close	1	intact	intact	93875f0f-82c8-483c-b71c-a32b6cf111d2_fps_avg_aud.mp4	0	0	0.699146	0	1	up	blue	1	0.239	low
415	5	10	0	self	1.5	1.50966	green	1	down	down	GLO	right	close	1	intact	intact	1affd9f8-27af-4e8b-9985-5f3abbee6931_fps_avg_aud.mp4	0	0	0.715067	0	1	right	green	1	0.24	low
415	5	11	0	self	1.5	1.51318	red	1	right	right	GLO	right	far	1	intact	intact	Jan19_fps_avg_aud.mp4	0	0	0.555607	0	1	down	red	1	0.241	low
415	5	12	0	self	1.5	1.51191	red	0	down	down	GLO	left	far	1	intact	intact	f88c90ff-41f4-4220-a305-426fa931932f_fps_avg_aud.mp4	0	0	0.494406	0	1	down	red	1	0.242	low
415	5	13	0	self	1.5	1.51087	yellow	0	left	left	GLO	left	close	1	intact	intact	Jun30_fps_avg_aud.mp4	0	0	0.564824	0	1	left	yellow	1	0.243	low
415	5	14	0	self	1.5	1.51208	red	1	left	left	GLO	left	close	1	intact	intact	11bc07f6-cbc9-48b9-a240-792e373d6a2a_fps_avg_aud.mp4	0	0	0.881678	0	1	down	red	1	0.244	low
415	5	15	0	self	1.5	1.51123	blue	1	down	down	GLO	left	far	1	intact	intact	July_2015_fps_avg_aud.mp4	0	0	0.839311	0	1	up	blue	1	0.245	low
415	5	16	0	self	1.5	1.51286	blue	0	up	up	GLO	left	close	1	intact	intact	99e5912a-fa6d-43dc-a1df-f887e6ef8a00_fps_avg_aud.mp4	0	0	0.580828	0	1	up	blue	1	0.246	low
415	5	17	0	self	1.5	1.51266	green	1	up	up	GLO	right	far	1	intact	intact	919b74e0-dd30-4685-b063-8556e1e10c55_fps_avg_aud.mp4	1	94	1.17456	0.355042	2	right	green	1	0.247	low
415	5	18	0	self	1.5	1.5154	red	0	down	down	GLO	right	close	1	intact	intact	240bdf76-9a30-49ea-9534-079281412955_fps_avg_aud.mp4	0	0	1.11604	0	1	down	red	1	0.248	low
415	5	19	0	self	1.5	1.50993	blue	0	up	up	GLO	right	close	1	intact	intact	fc42fffc-beb2-426f-85f8-fe9f11671486_fps_avg_aud.mp4	0	0	0.589791	0	1	up	blue	1	0.249	low
415	5	20	0	self	1.5	1.51103	red	0	down	down	GLO	left	close	1	intact	intact	e83d47c2-3289-4bb3-810c-afface120ccd_fps_avg_aud.mp4	0	0	0.596273	0	1	down	red	1	0.25	low
415	5	21	0	self	1.5	1.51214	yellow	1	up	up	GLO	left	close	1	intact	intact	226bfd42-14d0-45a1-82ba-233f4ddec70a_fps_avg_aud.mp4	0	0	0.754345	0	1	left	yellow	1	0.251	low
415	5	22	0	self	1.5	1.51315	red	0	down	down	GLO	right	far	1	intact	intact	7ef90bcf-5b2a-4df5-b522-5d3f1e9badf1_fps_avg_aud.mp4	0	0	0.680902	0	1	down	red	1	0.252	low
415	5	23	0	self	1.5	1.51361	blue	0	up	up	GLO	right	close	1	intact	intact	Aug11_fps_avg_aud.mp4	0	0	0.647818	0	1	up	blue	1	0.253	low
415	5	24	0	self	1.5	1.51097	green	0	right	right	GLO	left	close	1	intact	intact	Oct13_fps_avg_aud.mp4	1	113	1.24277	0.456057	2	right	green	1	0.254	low
415	5	25	0	self	1.5	1.51393	yellow	1	down	down	GLO	left	close	1	intact	intact	d0082a79-d6fc-4855-80df-f443f4a14e37_fps_avg_aud.mp4	0	0	0.922609	0	1	left	yellow	1	0.255	low
415	5	26	0	self	1.5	NaN	green	1	down	down	GLO	none	close	1	intact	intact	2016_fps_avg_aud.mp4	0	0	NaN	NaN	NaN	none	none	NaN	0.255	low
415	5	27	0	self	1.5	NaN	red	1	left	left	GLO	none	close	1	intact	intact	October_25_2016_fps_avg_aud.mp4	0	0	NaN	NaN	NaN	none	none	NaN	0.255	low
415	5	28	0	self	1.5	NaN	green	1	up	up	GLO	none	close	1	intact	intact	24481237-3ead-4e6a-9a61-be95f34bf5f2_fps_avg_aud.mp4	0	0	NaN	NaN	NaN	none	none	NaN	0.255	low
415	5	29	0	self	1.5	NaN	green	0	right	right	GLO	none	far	1	intact	intact	March_15_2016_fps_avg_aud.mp4	0	0	NaN	NaN	NaN	none	none	NaN	0.255	low
415	5	30	0	self	1.5	NaN	red	1	right	right	GLO	none	close	1	intact	intact	Jun8_fps_avg_aud.mp4	0	0	NaN	NaN	NaN	none	none	NaN	0.255	low
415	5	31	0	self	1.5	NaN	red	1	right	right	GLO	none	close	1	intact	intact	b35409aa-6325-4736-bc0d-526af5b26b83_fps_avg_aud.mp4	0	0	NaN	NaN	NaN	none	none	NaN	0.255	low
415	5	32	0	self	1.5	NaN	red	0	down	down	GLO	none	far	1	intact	intact	July25_fps_avg_aud.mp4	0	0	NaN	NaN	NaN	none	none	NaN	0.255	low
415	5	33	0	self	1.5	NaN	green	1	left	left	GLO	none	far	1	intact	intact	1b336470-7a10-4cc7-aee4-3a5e6e6e551e_fps_avg_aud.mp4	0	0	NaN	NaN	NaN	none	none	NaN	0.255	low
415	5	34	0	self	1.5	NaN	yellow	0	left	left	GLO	none	close	1	intact	intact	8e8c5e28-7fba-491b-88f9-891e8e26ddbd_fps_avg_aud.mp4	0	0	NaN	NaN	NaN	none	none	NaN	0.255	low
415	5	35	0	self	1.5	NaN	red	1	right	right	GLO	none	close	1	intact	intact	25a8b4d4-d5c7-4aab-af49-84ebba90c3be_fps_avg_aud.mp4	0	0	NaN	NaN	NaN	none	none	NaN	0.255	low
415	5	36	0	self	1.5	NaN	green	0	right	right	GLO	none	far	1	intact	intact	July_2015_(1)_fps_avg_aud.mp4	0	0	NaN	NaN	NaN	none	none	NaN	0.255	low
415	5	37	0	self	1.5	NaN	blue	1	down	down	GLO	none	far	1	intact	intact	bde7c25a-0ad2-4261-821f-9cae1d4d4033_fps_avg_aud.mp4	0	0	NaN	NaN	NaN	none	none	NaN	0.255	low
415	6	1	0	auto	1.5	1.51585	red	0	down	down	GLO	right	close	1	intact	intact	f9a11fba-d584-4a74-ba4f-e5eb4ac62b73_fps_avg_aud.mp4	1	0	0.829719	0	1	down	red	1	0.265	high
415	6	2	0	auto	1.5	1.51059	blue	0	up	up	GLO	right	close	1	intact	intact	September_2016_(2)_fps_avg_aud.mp4	1	0	0.898505	0	1	up	blue	1	0.275	high
415	6	3	0	auto	1.5	1.51159	yellow	1	up	up	GLO	right	close	0	intact	none	none	0	0	0.872573	0	1	left	yellow	1	0.285	high
415	6	4	0	auto	1.5	1.51262	blue	0	up	up	GLO	right	far	1	intact	intact	October_10_2016_(1)_fps_avg_aud.mp4	1	0	0.64134	0	1	up	blue	1	0.295	high
415	6	5	0	auto	1.5	1.50869	red	1	left	left	GLO	left	close	1	intact	intact	Jnauary_2016_fps_avg_aud.mp4	1	22	1.49888	0.081681	1	down	red	1	0.305	high
415	6	6	0	auto	1.5	1.50956	green	1	left	left	GLO	left	close	1	intact	intact	6aaea3fa-b030-41d1-8780-a1c1120cd763_fps_avg_aud.mp4	1	0	0.99386	0	1	right	green	1	0.315	high
415	6	7	0	auto	1.5	1.51577	red	1	right	right	GLO	left	close	1	intact	intact	b442d744-edd6-478c-94f1-be50e05465cc_fps_avg_aud.mp4	1	0	0.801275	0	1	down	red	1	0.325	high
415	6	8	0	auto	1.5	1.51012	yellow	1	right	right	GLO	left	close	1	intact	intact	May11_fps_avg_aud.mp4	1	33	1.76482	0.134932	1	left	yellow	1	0.335	high
415	6	9	0	auto	1.5	1.51269	red	0	down	down	GLO	right	far	1	intact	intact	61be81ef-2338-498f-a09a-fd23aea0f3ec_fps_avg_aud.mp4	1	12	1.68687	0.0360354	1	down	red	1	0.345	high
415	6	10	0	auto	1.5	1.51005	blue	0	up	up	GLO	left	far	1	intact	intact	690b1209-9514-4bd6-9698-3a990594f223_fps_avg_aud.mp4	1	0	0.832597	0	1	up	blue	1	0.355	high
415	6	11	0	auto	1.5	1.50966	yellow	1	up	up	GLO	right	close	1	intact	intact	11bc07f6-cbc9-48b9-a240-792e373d6a2a_fps_avg_aud.mp4	1	0	0.696523	0	1	left	yellow	1	0.365	high
415	6	12	0	auto	1.5	1.51113	yellow	1	up	up	GLO	right	close	1	intact	intact	d59b9ee2-e1af-4171-a59e-9daefced695e_fps_avg_aud.mp4	1	0	0.536495	0	1	left	yellow	1	0.375	high
415	6	13	0	auto	1.5	1.51635	yellow	1	right	right	GLO	right	close	1	intact	intact	f0c0b40e-f75d-4798-8deb-2b993faeea9f_fps_avg_aud.mp4	1	0	0.609	0	1	left	yellow	1	0.385	high
415	6	14	0	auto	1.5	1.51606	red	1	up	up	GLO	right	far	1	intact	intact	Jan11_fps_avg_aud.mp4	1	0	0.793012	0	1	down	red	1	0.395	high
415	6	15	0	auto	1.5	1.50995	blue	1	right	right	GLO	right	close	0	intact	none	none	0	0	0.688987	0	1	up	blue	1	0.405	high
415	6	16	0	auto	1.5	1.50961	green	1	down	down	GLO	right	far	1	intact	intact	b35409aa-6325-4736-bc0d-526af5b26b83_fps_avg_aud.mp4	1	0	0.982283	0	1	right	green	1	0.415	high
415	6	17	0	auto	1.5	1.5111	green	0	right	right	GLO	left	close	1	intact	intact	Jul30_fps_avg_aud.mp4	1	0	0.673902	0	1	right	green	1	0.425	high
415	6	18	0	auto	1.5	1.51168	blue	1	left	left	GLO	left	far	1	intact	intact	Feb7_fps_avg_aud.mp4	1	116	1.9891	0.462284	2	up	blue	1	0.435	high
415	6	19	0	auto	1.5	1.50968	green	0	right	right	GLO	right	far	0	intact	none	none	0	0	1.36553	0	1	right	green	1	0.445	high
415	6	20	0	auto	1.5	1.51107	green	0	right	right	GLO	right	far	1	intact	intact	December_2015_(2)_fps_avg_aud.mp4	1	0	0.867106	0	1	right	green	1	0.455	high
415	6	21	0	auto	1.5	1.51224	red	0	down	down	GLO	right	far	1	intact	intact	Aug12_fps_avg_aud.mp4	1	0	0.592956	0	1	down	red	1	0.465	high
415	6	22	0	auto	1.5	1.51514	blue	0	up	up	GLO	right	close	1	intact	intact	Feb8_fps_avg_aud.mp4	1	0	0.653684	0	1	up	blue	1	0.475	high
415	6	23	0	auto	1.5	1.50899	yellow	0	left	left	GLO	right	far	0	intact	none	none	0	0	0.624494	0	1	left	yellow	1	0.485	high
415	6	24	0	auto	1.5	1.5123	yellow	0	left	left	GLO	right	close	1	intact	intact	Febraury_2016_fps_avg_aud.mp4	1	0	0.453983	0	1	left	yellow	1	0.495	high
415	6	25	0	auto	1.5	NaN	blue	0	up	up	GLO	none	far	1	intact	intact	July_2015_(1)_fps_avg_aud.mp4	0	0	NaN	NaN	NaN	none	none	NaN	0.495	high
415	6	26	0	auto	1.5	NaN	red	1	right	right	GLO	none	far	1	intact	intact	a525e336-0ec0-4048-92cf-487e44952f5c_fps_avg_aud.mp4	0	0	NaN	NaN	NaN	none	none	NaN	0.495	high
415	6	27	0	auto	1.5	NaN	red	1	left	left	GLO	none	far	1	intact	intact	a286ef4d-f7bf-4cc1-b7c2-912b53e8ea4a_fps_avg_aud.mp4	0	0	NaN	NaN	NaN	none	none	NaN	0.495	high
415	6	28	0	auto	1.5	NaN	red	1	right	right	GLO	none	far	1	intact	intact	e8afc4ba-88ff-4bff-928a-27c2c4fe446f_fps_avg_aud.mp4	0	0	NaN	NaN	NaN	none	none	NaN	0.495	high
415	6	29	0	auto	1.5	NaN	blue	0	up	up	GLO	none	close	0	intact	none	none	0	0	NaN	NaN	NaN	none	none	NaN	0.495	high
415	6	30	0	auto	1.5	NaN	red	0	down	down	GLO	none	close	1	intact	intact	Sep20_fps_avg_aud.mp4	0	0	NaN	NaN	NaN	none	none	NaN	0.495	high
415	6	31	0	auto	1.5	NaN	green	0	right	right	GLO	none	far	1	intact	intact	65e09f1a-138e-4ec0-8b5b-5702c47341ad_fps_avg_aud.mp4	0	0	NaN	NaN	NaN	none	none	NaN	0.495	high
415	6	32	0	auto	1.5	NaN	blue	0	up	up	GLO	none	close	1	intact	intact	Jun6_fps_avg_aud.mp4	0	0	NaN	NaN	NaN	none	none	NaN	0.495	high
415	6	33	0	auto	1.5	NaN	green	1	down	down	GLO	none	far	0	intact	none	none	0	0	NaN	NaN	NaN	none	none	NaN	0.495	high
415	6	34	0	auto	1.5	NaN	green	1	left	left	GLO	none	close	0	intact	none	none	0	0	NaN	NaN	NaN	none	none	NaN	0.495	high
415	6	35	0	auto	1.5	NaN	yellow	0	left	left	GLO	none	close	0	intact	none	none	0	0	NaN	NaN	NaN	none	none	NaN	0.495	high
415	6	36	0	auto	1.5	NaN	red	1	left	left	GLO	none	far	1	intact	intact	c79830e0-a78a-415b-b7be-95bf79fe1a3a_fps_avg_aud.mp4	0	0	NaN	NaN	NaN	none	none	NaN	0.495	high
415	6	37	0	auto	1.5	NaN	red	1	up	up	GLO	none	far	1	intact	intact	533b0238-357b-409c-8d86-25285970eb98_fps_avg_aud.mp4	0	0	NaN	NaN	NaN	none	none	NaN	0.495	high
415	7	1	0	auto	1.5	1.51194	yellow	1	right	right	GLO	left	far	1	intact	intact	0fca764b-7147-4307-96dc-cc1807afd905_fps_avg_aud.mp4	1	0	0.941028	0	1	left	yellow	1	0.496	low
415	7	2	0	auto	1.5	1.51206	blue	1	down	down	GLO	left	close	1	intact	intact	089179b5-68cb-4167-89fa-52f69549f728_fps_avg_aud.mp4	1	1	0.682547	5.51e-06	1	up	blue	1	0.497	low
415	7	3	0	auto	1.5	1.51203	green	0	right	right	GLO	right	far	0	intact	none	none	0	0	1.02335	0	1	right	green	1	0.498	low
415	7	4	0	auto	1.5	1.51522	green	1	up	up	GLO	right	close	1	intact	intact	4d7a8a8c-063f-4a89-bd24-c32713b6ffa7_fps_avg_aud.mp4	1	0	0.697668	0	1	right	green	1	0.499	low
415	7	5	0	auto	1.5	1.51003	red	1	left	left	GLO	left	far	1	intact	intact	1fd9b798-493d-4dfc-a8df-678bad207055_fps_avg_aud.mp4	1	0	0.819695	0	1	down	red	1	0.5	low
415	7	6	0	auto	1.5	1.51103	blue	1	down	down	GLO	right	close	0	intact	none	none	0	0	0.981435	0	1	up	blue	1	0.501	low
415	7	7	0	auto	1.5	1.50972	blue	0	up	up	GLO	right	close	1	intact	intact	October_20_2016_fps_avg_aud.mp4	1	0	0.622955	0	1	up	blue	1	0.502	low
415	7	8	0	auto	1.5	1.51271	red	1	right	right	GLO	right	far	1	intact	intact	September_2016_fps_avg_aud.mp4	1	0	0.775724	0	1	down	red	1	0.503	low
415	7	9	0	auto	1.5	1.50998	red	0	down	down	GLO	right	far	1	intact	intact	023396f6-bdb5-478d-a725-e32d4f6b7be9_fps_avg_aud.mp4	1	0	0.581475	0	1	down	red	1	0.504	low
415	7	10	0	auto	1.5	1.51307	blue	0	up	up	GLO	right	far	1	intact	intact	Sep27_fps_avg_aud.mp4	1	0	0.616059	0	1	up	blue	1	0.505	low
415	7	11	0	auto	1.5	1.51163	green	0	right	right	GLO	right	close	0	intact	none	none	0	0	0.61484	0	1	right	green	1	0.506	low
415	7	12	0	auto	1.5	1.51193	red	0	down	down	GLO	left	close	0	intact	none	none	0	0	0.697085	0	1	down	red	1	0.507	low
415	7	13	0	auto	1.5	1.51216	green	0	right	right	GLO	right	far	0	intact	none	none	0	0	0.814378	0	1	right	green	1	0.508	low
415	7	14	0	auto	1.5	1.5102	green	1	left	left	GLO	right	close	1	intact	intact	d4f25bdd-9060-452d-8b9a-299b4d79a939_fps_avg_aud.mp4	1	17	1.01537	0.0665293	1	right	green	1	0.509	low
415	7	15	0	auto	1.5	1.51335	red	0	down	down	GLO	right	close	1	intact	intact	f86e1967-f74c-492a-93b0-8eac09649762_fps_avg_aud.mp4	1	40	0.64763	0.164966	1	down	red	1	0.51	low
415	7	16	0	auto	1.5	1.51039	green	1	down	down	GLO	left	close	0	intact	none	none	0	0	0.826065	0	1	right	green	1	0.511	low
415	7	17	0	auto	1.5	1.51209	blue	1	down	down	GLO	right	far	1	intact	intact	a66e9cf1-4573-4450-a822-0bcc91474968_fps_avg_aud.mp4	1	109	1.11281	0.531215	1	up	blue	1	0.512	low
415	7	18	0	auto	1.5	1.51058	blue	0	up	up	GLO	left	far	1	intact	intact	Feb27_fps_avg_aud.mp4	1	110	1.01772	0.477539	1	up	blue	1	0.513	low
415	7	19	0	auto	1.5	1.5151	blue	1	left	left	GLO	left	close	1	intact	intact	december_2015_(4)_fps_avg_aud.mp4	1	159	1.11406	0.700013	1	up	blue	1	0.514	low
415	7	20	0	auto	1.5	1.50987	green	1	up	up	GLO	right	close	0	intact	none	none	0	0	1.18152	0	1	right	green	1	0.515	low
415	7	21	0	auto	1.5	1.51329	blue	0	up	up	GLO	right	far	1	intact	intact	7ed41b90-fac5-42bc-94a9-a4d7f021d578_fps_avg_aud.mp4	1	91	0.930715	0.471686	2	up	blue	1	0.516	low
415	7	22	0	auto	1.5	1.51	red	1	right	right	GLO	right	far	1	intact	intact	bbadcc83-10bb-4a2d-a28a-1d6b44f33770_fps_avg_aud.mp4	1	88	0.906718	0.358261	1	down	red	1	0.517	low
415	7	23	0	auto	1.5	1.51055	green	0	right	right	GLO	right	close	0	intact	none	none	0	0	0.949318	0	1	right	green	1	0.518	low
415	7	24	0	auto	1.5	1.5112	blue	1	down	down	GLO	left	close	1	intact	intact	June7_fps_avg_aud.mp4	1	86	0.731265	0.315567	1	up	blue	1	0.519	low
415	7	25	0	auto	1.5	1.51132	yellow	0	left	left	GLO	right	close	1	intact	intact	92171dfa-1474-4f0d-8c37-ab1d226fa154(1)_fps_avg_aud.mp4	1	2	0.397729	0.0238263	1	left	yellow	1	0.52	low
415	7	26	0	auto	1.5	NaN	green	0	right	right	GLO	none	far	1	intact	intact	4492b756-14ac-4694-8c38-fa7503b864e1_fps_avg_aud.mp4	0	0	NaN	NaN	NaN	none	none	NaN	0.52	low
415	7	27	0	auto	1.5	NaN	yellow	1	up	up	GLO	none	far	0	intact	none	none	0	0	NaN	NaN	NaN	none	none	NaN	0.52	low
415	7	28	0	auto	1.5	NaN	green	1	up	up	GLO	none	close	0	intact	none	none	0	0	NaN	NaN	NaN	none	none	NaN	0.52	low
415	7	29	0	auto	1.5	NaN	blue	0	up	up	GLO	none	close	1	intact	intact	Nov10_fps_avg_aud.mp4	0	0	NaN	NaN	NaN	none	none	NaN	0.52	low
415	7	30	0	auto	1.5	NaN	green	0	right	right	GLO	none	close	0	intact	none	none	0	0	NaN	NaN	NaN	none	none	NaN	0.52	low
415	7	31	0	auto	1.5	NaN	red	0	down	down	GLO	none	close	0	intact	none	none	0	0	NaN	NaN	NaN	none	none	NaN	0.52	low
415	7	32	0	auto	1.5	NaN	yellow	1	right	right	GLO	none	far	1	intact	intact	25a8b4d4-d5c7-4aab-af49-84ebba90c3be_fps_avg_aud.mp4	0	0	NaN	NaN	NaN	none	none	NaN	0.52	low
415	7	33	0	auto	1.5	NaN	blue	0	up	up	GLO	none	close	0	intact	none	none	0	0	NaN	NaN	NaN	none	none	NaN	0.52	low
415	7	34	0	auto	1.5	NaN	blue	0	up	up	GLO	none	close	0	intact	none	none	0	0	NaN	NaN	NaN	none	none	NaN	0.52	low
415	7	35	0	auto	1.5	NaN	green	1	down	down	GLO	none	far	1	intact	intact	July21_fps_avg_aud.mp4	0	0	NaN	NaN	NaN	none	none	NaN	0.52	low
415	7	36	0	auto	1.5	NaN	red	0	down	down	GLO	none	far	1	intact	intact	a286ef4d-f7bf-4cc1-b7c2-912b53e8ea4a_fps_avg_aud.mp4	0	0	NaN	NaN	NaN	none	none	NaN	0.52	low
415	7	37	0	auto	1.5	NaN	yellow	0	left	left	GLO	none	close	1	intact	intact	bd3765b8-eb64-440a-a4a8-b6804686fcae_fps_avg_aud.mp4	0	0	NaN	NaN	NaN	none	none	NaN	0.52	low
415	8	1	0	self	1.5	1.51701	red	1	right	right	GLO	left	far	1	intact	intact	a24b6226-d6e8-4655-b874-d79fefacec8c_fps_avg_aud.mp4	0	0	1.0141	0	1	down	red	1	0.521	low
415	8	2	0	self	1.5	1.51081	blue	0	up	up	GLO	right	far	1	intact	intact	2ee32cdc-eb1b-4b14-b0d7-fb25b7ed46e3_fps_avg_aud.mp4	0	0	1.032	0	1	up	blue	1	0.522	low
415	8	3	0	self	1.5	1.51394	red	0	down	down	GLO	right	far	1	intact	intact	January_2016_(3)_fps_avg_aud.mp4	1	0	1.05811	0	1	down	red	1	0.523	low
415	8	4	0	self	1.5	1.51262	green	1	down	down	GLO	left	far	1	intact	intact	Jun1_fps_avg_aud.mp4	1	55	1.81722	0.205765	1	right	green	1	0.524	low
415	8	5	0	self	1.5	1.50871	yellow	1	up	up	GLO	right	far	1	intact	intact	aaed05cf-98e5-42ad-91f7-ba579fcda996_fps_avg_aud.mp4	1	30	1.74397	0.136173	1	left	yellow	1	0.525	low
415	8	6	0	self	1.5	1.51414	green	1	left	left	GLO	right	close	1	intact	intact	e57a35d6-39b7-4b9c-a4a1-844e0bebd3c1_fps_avg_aud.mp4	0	0	1.22314	0	1	right	green	1	0.526	low
415	8	7	0	self	1.5	1.50969	blue	0	up	up	GLO	left	close	1	intact	intact	abff9cfd-d67a-47e2-bc3f-92551e8414e2(1)_fps_avg_aud.mp4	0	0	1.13162	0	1	up	blue	1	0.527	low
415	8	8	0	self	1.5	1.50963	blue	1	left	left	GLO	left	close	1	intact	intact	Nov24_fps_avg_aud.mp4	0	0	0.565118	0	1	up	blue	1	0.528	low
415	8	9	0	self	1.5	1.51081	yellow	1	down	down	GLO	right	far	1	intact	intact	October_4_2015_fps_avg_aud.mp4	0	0	0.66397	0	1	left	yellow	1	0.529	low
415	8	10	0	self	1.5	1.50899	blue	0	up	up	GLO	left	close	1	intact	intact	eec24f3a-496f-4cb7-8f48-5bf5530f3e96_fps_avg_aud.mp4	0	0	0.56524	0	1	up	blue	1	0.53	low
415	8	11	0	self	1.5	1.51114	blue	0	up	up	GLO	right	close	1	intact	intact	491c6b26-e39a-4650-ae90-8d66fc596b16_fps_avg_aud.mp4	0	0	0.473608	0	1	up	blue	1	0.531	low
415	8	12	0	self	1.5	1.51253	green	0	right	right	GLO	right	far	1	intact	intact	a3a57263-6857-435d-87b3-5c44ae53e10a_fps_avg_aud.mp4	0	0	0.563731	0	1	right	green	1	0.532	low
415	8	13	0	self	1.5	1.51224	green	0	right	right	GLO	left	far	1	intact	intact	f22090a0-ec04-4dfd-99ca-7810b9650ec8_fps_avg_aud.mp4	0	0	0.480943	0	1	right	green	1	0.533	low
415	8	14	0	self	1.5	1.51237	green	1	down	down	GLO	right	close	1	intact	intact	March25_2016_fps_avg_aud.mp4	0	0	0.549314	0	1	right	green	1	0.534	low
415	8	15	0	self	1.5	1.512	blue	0	up	up	GLO	left	far	1	intact	intact	32b66b3c-9f3a-4856-9278-87ca4048d48e_fps_avg_aud.mp4	0	0	0.455073	0	1	up	blue	1	0.535	low
415	8	16	0	self	1.5	1.51205	blue	1	down	down	GLO	right	close	1	intact	intact	19665232-505f-47ba-bfb2-2e9668369ce4_fps_avg_aud.mp4	0	0	0.4305	0	1	up	blue	1	0.536	low
415	8	17	0	self	1.5	1.51247	green	1	up	up	GLO	right	far	1	intact	intact	jun13_fps_avg_aud.mp4	0	0	0.689864	0	1	right	green	1	0.537	low
415	8	18	0	self	1.5	1.51312	green	1	up	up	GLO	right	far	1	intact	intact	Nov1_fps_avg_aud.mp4	0	0	0.464981	0	1	right	green	1	0.538	low
415	8	19	0	self	1.5	1.5132	yellow	1	down	down	GLO	left	close	1	intact	intact	240bdf76-9a30-49ea-9534-079281412955_fps_avg_aud.mp4	0	0	0.731721	0	1	left	yellow	1	0.539	low
415	8	20	0	self	1.5	1.50923	blue	1	left	left	GLO	left	close	1	intact	intact	beb38bd6-976e-468f-9f23-b6b41f12ce11_fps_avg_aud.mp4	0	0	0.614132	0	1	up	blue	1	0.54	low
415	8	21	0	self	1.5	1.51165	green	1	left	left	GLO	right	far	1	intact	intact	Apr16_fps_avg_aud.mp4	0	0	0.787921	0	1	right	green	1	0.541	low
415	8	22	0	self	1.5	1.5096	blue	0	up	up	GLO	left	far	1	intact	intact	34317ec5-8b9d-4b06-8954-49f3b4c2619c_fps_avg_aud.mp4	0	0	0.582161	0	1	up	blue	1	0.542	low
415	8	23	0	self	1.5	1.51159	green	1	up	up	GLO	left	close	1	intact	intact	f001cded-b985-4905-a6ac-c1793ff8fab2_fps_avg_aud.mp4	0	0	0.608531	0	1	right	green	1	0.543	low
415	8	24	0	self	1.5	1.51148	blue	0	up	up	GLO	right	far	1	intact	intact	ac2b9dfa-7a4b-40ef-9499-c883a9127ad7_fps_avg_aud.mp4	0	0	0.830887	0	1	up	blue	1	0.544	low
415	8	25	0	self	1.5	1.51212	red	0	down	down	GLO	right	far	1	intact	intact	b30caa2d-af05-4325-9f3a-3d34dcb611e7_fps_avg_aud.mp4	0	0	0.597742	0	1	down	red	1	0.545	low
415	8	26	0	self	1.5	1.51265	yellow	1	down	down	GLO	left	far	1	intact	intact	4f243f72-5a08-4b19-aa43-2448c9f0545d_fps_avg_aud.mp4	0	0	1.05789	0	1	left	yellow	1	0.546	low
415	8	27	0	self	1.5	NaN	yellow	0	left	left	GLO	none	far	1	intact	intact	Jan27_fps_avg_aud.mp4	0	0	NaN	NaN	NaN	none	none	NaN	0.546	low
415	8	28	0	self	1.5	NaN	green	1	down	down	GLO	none	far	1	intact	intact	Dec12_fps_avg_aud.mp4	0	0	NaN	NaN	NaN	none	none	NaN	0.546	low
415	8	29	0	self	1.5	NaN	green	0	right	right	GLO	none	close	1	intact	intact	21ca1f40-8184-4506-9096-1849a40e04e2_fps_avg_aud.mp4	0	0	NaN	NaN	NaN	none	none	NaN	0.546	low
415	8	30	0	self	1.5	NaN	red	0	down	down	GLO	none	far	1	intact	intact	cabd6947-9e88-4e9a-90fa-985b610f3784_fps_avg_aud.mp4	0	0	NaN	NaN	NaN	none	none	NaN	0.546	low
415	8	31	0	self	1.5	NaN	blue	0	up	up	GLO	none	far	1	intact	intact	a444c8a7-2f60-4193-8052-530d5b35ed4c_fps_avg_aud.mp4	0	0	NaN	NaN	NaN	none	none	NaN	0.546	low
415	8	32	0	self	1.5	NaN	red	1	left	left	GLO	none	far	1	intact	intact	Jun17_fps_avg_aud.mp4	0	0	NaN	NaN	NaN	none	none	NaN	0.546	low
415	8	33	0	self	1.5	NaN	blue	0	up	up	GLO	none	far	1	intact	intact	520ef496-2bf3-4f3e-8a54-00e0428b126c_fps_avg_aud.mp4	0	0	NaN	NaN	NaN	none	none	NaN	0.546	low
415	8	34	0	self	1.5	NaN	yellow	0	left	left	GLO	none	close	1	intact	intact	Dec26_fps_avg_aud.mp4	0	0	NaN	NaN	NaN	none	none	NaN	0.546	low
415	8	35	0	self	1.5	NaN	green	1	left	left	GLO	none	far	1	intact	intact	05c4b895-8d51-48d4-93fd-4e37519019a0_fps_avg_aud.mp4	0	0	NaN	NaN	NaN	none	none	NaN	0.546	low
415	8	36	0	self	1.5	NaN	blue	0	up	up	GLO	none	close	1	intact	intact	bd6f74c6-a8d8-4bf6-bf1e-d008c6733318_fps_avg_aud.mp4	0	0	NaN	NaN	NaN	none	none	NaN	0.546	low
415	8	37	0	self	1.5	NaN	yellow	0	left	left	GLO	none	close	1	intact	intact	838aaec1-d86d-4006-a165-4cb3e5f6444b_fps_avg_aud.mp4	0	0	NaN	NaN	NaN	none	none	NaN	0.546	low
415	9	1	0	auto	1.5	1.51609	red	1	right	right	GLO	right	far	0	intact	none	none	0	0	0.698326	0	1	down	red	1	0.556	high
415	9	2	0	auto	1.5	1.50997	blue	0	up	up	GLO	right	far	1	intact	intact	c3c668bd-3353-4887-b3ff-6d0225f5629c_fps_avg_aud.mp4	1	0	0.522906	0	1	up	blue	1	0.566	high
415	9	3	0	auto	1.5	1.51056	blue	1	left	left	GLO	left	close	1	intact	intact	cef9c179-f64d-4543-875f-6808da2329b6_fps_avg_aud.mp4	1	0	0.688104	0	1	up	blue	1	0.576	high
415	9	4	0	auto	1.5	1.51047	red	0	down	down	GLO	left	close	0	intact	none	none	0	0	0.565897	0	1	down	red	1	0.586	high
415	9	5	0	auto	1.5	1.51149	yellow	1	up	up	GLO	right	close	1	intact	intact	July6_fps_avg_aud.mp4	1	0	0.622231	0	1	left	yellow	1	0.596	high
415	9	6	0	auto	1.5	1.50942	yellow	1	down	down	GLO	left	close	1	intact	intact	Jun8_fps_avg_aud.mp4	1	0	0.563862	0	1	left	yellow	1	0.606	high
415	9	7	0	auto	1.5	1.51022	red	0	down	down	GLO	right	close	0	intact	none	none	0	0	0.564772	0	1	down	red	1	0.616	high
415	9	8	0	auto	1.5	1.51302	yellow	0	left	left	GLO	left	far	1	intact	intact	Nov11_fps_avg_aud.mp4	1	4	0.721501	0.00824768	1	left	yellow	1	0.626	high
415	9	9	0	auto	1.5	1.51161	blue	1	right	right	GLO	left	far	0	intact	none	none	0	0	0.539032	0	1	right	green	0	0.616	high
415	9	10	0	auto	1.5	1.50987	yellow	0	left	left	GLO	left	close	1	intact	intact	january_31_2016_fps_avg_aud.mp4	1	0	0.681633	0	1	left	yellow	1	0.626	high
415	9	11	0	auto	1.5	1.51559	red	1	right	right	GLO	left	far	1	intact	intact	jun13_fps_avg_aud.mp4	1	0	1.30543	0	1	down	red	1	0.636	high
415	9	12	0	auto	1.5	1.51458	green	0	right	right	GLO	left	far	1	intact	intact	c5792f9d-c420-493b-acf2-46528babd08c_fps_avg_aud.mp4	1	0	0.830539	0	1	right	green	1	0.646	high
415	9	13	0	auto	1.5	1.5107	yellow	1	down	down	GLO	left	far	1	intact	intact	647890e0-5689-43cf-86ab-b37e61076130_fps_avg_aud.mp4	1	0	0.762627	0	1	left	yellow	1	0.656	high
415	9	14	0	auto	1.5	1.51061	green	0	right	right	GLO	right	close	1	intact	intact	f22090a0-ec04-4dfd-99ca-7810b9650ec8_fps_avg_aud.mp4	1	16	1.34882	0.0668986	1	right	green	1	0.666	high
415	9	15	0	auto	1.5	1.51269	red	1	left	left	GLO	left	close	1	intact	intact	eec24f3a-496f-4cb7-8f48-5bf5530f3e96_fps_avg_aud.mp4	1	81	1.01489	0.32168	1	down	red	1	0.676	high
415	9	16	0	auto	1.5	1.51309	green	0	right	right	GLO	right	close	1	intact	intact	359d82dd-3d4c-4029-a89b-66422745c056_fps_avg_aud.mp4	1	25	0.681433	0.0924607	1	right	green	1	0.686	high
415	9	17	0	auto	1.5	1.51414	green	1	down	down	GLO	right	far	0	intact	none	none	0	0	0.748672	0	1	right	green	1	0.696	high
415	9	18	0	auto	1.5	1.51199	yellow	1	up	up	GLO	right	close	1	intact	intact	Jan4_fps_avg_aud.mp4	1	0	0.581908	0	1	left	yellow	1	0.706	high
415	9	19	0	auto	1.5	1.51167	yellow	1	down	down	GLO	left	close	1	intact	intact	b2f11719-a2c9-405c-93a2-abd13a835201_fps_avg_aud.mp4	1	45	0.615213	0.23417	1	left	yellow	1	0.716	high
415	9	20	0	auto	1.5	1.5134	blue	1	left	left	GLO	right	far	0	intact	none	none	0	0	0.665405	0	1	up	blue	1	0.726	high
415	9	21	0	auto	1.5	1.51093	yellow	1	up	up	GLO	left	far	0	intact	none	none	0	0	0.72192	0	1	left	yellow	1	0.736	high
415	9	22	0	auto	1.5	1.51201	red	0	down	down	GLO	left	close	1	intact	intact	c4c0c443-720b-4afe-955c-b60460b3fa87_fps_avg_aud.mp4	1	110	1.45351	0.439005	1	down	red	1	0.746	high
415	9	23	0	auto	1.5	1.51211	red	0	down	down	GLO	right	close	1	intact	intact	a9843691-e4cb-4c12-aa70-47f2024c5698_fps_avg_aud.mp4	1	0	0.606984	0	1	down	red	1	0.756	high
415	9	24	0	auto	1.5	1.51278	blue	1	down	down	GLO	right	far	1	intact	intact	f8f9d4f8-9aad-49b0-8b1c-ddf47286d601_fps_avg_aud.mp4	1	0	0.652885	0	1	up	blue	1	0.766	high
415	9	25	0	auto	1.5	1.50911	blue	1	left	left	GLO	right	far	1	intact	intact	Jun30_fps_avg_aud.mp4	1	0	0.566871	0	1	up	blue	1	0.776	high
415	9	26	0	auto	1.5	1.51028	yellow	0	left	left	GLO	left	far	0	intact	none	none	0	0	0.565862	0	1	left	yellow	1	0.786	high
415	9	27	0	auto	1.5	NaN	yellow	1	right	right	GLO	none	far	1	intact	intact	june_18_2015_fps_avg_aud.mp4	0	0	NaN	NaN	NaN	none	none	NaN	0.786	high
415	9	28	0	auto	1.5	NaN	red	0	down	down	GLO	none	far	1	intact	intact	667c6586-78bc-49b6-b207-12bdfa8fdd9e_fps_avg_aud.mp4	0	0	NaN	NaN	NaN	none	none	NaN	0.786	high
415	9	29	0	auto	1.5	NaN	green	0	right	right	GLO	none	close	0	intact	none	none	0	0	NaN	NaN	NaN	none	none	NaN	0.786	high
415	9	30	0	auto	1.5	NaN	red	0	down	down	GLO	none	far	1	intact	intact	149f1481-9792-4892-beba-4137601f26a6_fps_avg_aud.mp4	0	0	NaN	NaN	NaN	none	none	NaN	0.786	high
415	9	31	0	auto	1.5	NaN	red	0	down	down	GLO	none	far	0	intact	none	none	0	0	NaN	NaN	NaN	none	none	NaN	0.786	high
415	9	32	0	auto	1.5	NaN	green	1	left	left	GLO	none	close	1	intact	intact	491f864e-d652-4cca-82ba-d023f3192016_fps_avg_aud.mp4	0	0	NaN	NaN	NaN	none	none	NaN	0.786	high
415	9	33	0	auto	1.5	NaN	red	1	right	right	GLO	none	close	1	intact	intact	5b8d6efa-e1ab-4dc5-b720-51d467e90859_fps_avg_aud.mp4	0	0	NaN	NaN	NaN	none	none	NaN	0.786	high
415	9	34	0	auto	1.5	NaN	yellow	1	down	down	GLO	none	close	1	intact	intact	July_2015_(2)_fps_avg_aud.mp4	0	0	NaN	NaN	NaN	none	none	NaN	0.786	high
415	9	35	0	auto	1.5	NaN	blue	0	up	up	GLO	none	close	0	intact	none	none	0	0	NaN	NaN	NaN	none	none	NaN	0.786	high
415	9	36	0	auto	1.5	NaN	blue	1	down	down	GLO	none	close	0	intact	none	none	0	0	NaN	NaN	NaN	none	none	NaN	0.786	high
415	9	37	0	auto	1.5	NaN	yellow	0	left	left	GLO	none	far	1	intact	intact	Jun20_fps_avg_aud.mp4	0	0	NaN	NaN	NaN	none	none	NaN	0.786	high
415	10	1	0	self	1.5	1.51707	green	1	left	left	GLO	right	far	1	intact	intact	July23_fps_avg_aud.mp4	0	0	1.04863	0	1	right	green	1	0.796	high
415	10	2	0	self	1.5	1.5101	blue	1	left	left	GLO	right	far	1	intact	intact	54741aa9-fdb7-4546-b60b-078b0914ddd1_fps_avg_aud.mp4	0	0	1.24004	0	1	up	blue	1	0.806	high
415	10	3	0	self	1.5	1.51382	yellow	1	up	up	GLO	right	far	1	intact	intact	8b0c9e6a-53bd-46f6-908f-7a8316798b92_fps_avg_aud.mp4	0	0	0.581912	0	1	left	yellow	1	0.816	high
415	10	4	0	self	1.5	1.51348	yellow	0	left	left	GLO	left	close	1	intact	intact	612a0f1b-c1f3-4c75-bb69-404849fe6ff8_fps_avg_aud.mp4	0	0	0.547584	0	1	left	yellow	1	0.826	high
415	10	5	0	self	1.5	1.51168	blue	0	up	up	GLO	right	far	1	intact	intact	10969b38-242c-4207-88e8-6564613d4d88(1)_fps_avg_aud.mp4	0	0	0.532417	0	1	up	blue	1	0.836	high
415	10	6	0	self	1.5	1.51211	yellow	0	left	left	GLO	left	close	1	intact	intact	de0e4ce1-0f87-4077-b69c-578049fe4691_fps_avg_aud.mp4	0	0	0.580759	0	1	left	yellow	1	0.846	high
415	10	7	0	self	1.5	1.51117	yellow	0	left	left	GLO	right	close	1	intact	intact	f1caa1d5-1230-4918-b000-58763883bff3_fps_avg_aud.mp4	0	0	0.430899	0	1	left	yellow	1	0.856	high
415	10	8	0	self	1.5	1.5116	blue	0	up	up	GLO	right	far	1	intact	intact	September_2016_(3)_fps_avg_aud.mp4	0	0	0.578942	0	1	up	blue	1	0.866	high
415	10	9	0	self	1.5	1.51131	red	1	up	up	GLO	left	close	1	intact	intact	a36f5f1c-60eb-41c0-8ed1-09a4e01342bc_fps_avg_aud.mp4	0	0	0.697553	0	1	down	red	1	0.876	high
415	10	10	0	self	1.5	1.50954	red	0	down	down	GLO	right	far	1	intact	intact	January_4_2016_fps_avg_aud.mp4	0	0	0.497277	0	1	down	red	1	0.886	high
415	10	11	0	self	1.5	1.51334	red	0	down	down	GLO	right	close	1	intact	intact	Jul10_fps_avg_aud.mp4	0	0	0.514572	0	1	down	red	1	0.896	high
415	10	12	0	self	1.5	1.51236	green	0	right	right	GLO	right	far	1	intact	intact	July25_fps_avg_aud.mp4	0	0	0.665233	0	1	right	green	1	0.906	high
415	10	13	0	self	1.5	1.51063	yellow	1	down	down	GLO	right	close	1	intact	intact	cfead01b-2f72-4131-8069-3f2052f352e3_fps_avg_aud.mp4	0	0	1.31289	0	1	left	yellow	1	0.916	high
415	10	14	0	self	1.5	1.51109	blue	0	up	up	GLO	left	close	1	intact	intact	August1_fps_avg_aud.mp4	0	0	0.49834	0	1	up	blue	1	0.926	high
415	10	15	0	self	1.5	1.51065	green	0	right	right	GLO	right	far	1	intact	intact	Sep22_fps_avg_aud.mp4	0	0	0.548124	0	1	right	green	1	0.936	high
415	10	16	0	self	1.5	1.51113	yellow	0	left	left	GLO	right	close	1	intact	intact	beb38bd6-976e-468f-9f23-b6b41f12ce11_fps_avg_aud.mp4	0	0	0.374556	0	1	left	yellow	1	0.946	high
415	10	17	0	self	1.5	1.51244	green	1	down	down	GLO	right	close	1	intact	intact	Dec13_fps_avg_aud.mp4	0	0	0.971989	0	1	right	green	1	0.956	high
415	10	18	0	self	1.5	1.50949	blue	1	down	down	GLO	left	close	1	intact	intact	8e04ddf1-d15f-4074-881d-a5c3c7dd3fab_fps_avg_aud.mp4	0	0	0.732108	0	1	up	blue	1	0.966	high
415	10	19	0	self	1.5	1.51137	yellow	1	down	down	GLO	left	close	1	intact	intact	21ca1f40-8184-4506-9096-1849a40e04e2_fps_avg_aud.mp4	0	0	0.708352	0	1	left	yellow	1	0.976	high
415	10	20	0	self	1.5	1.51109	blue	1	right	right	GLO	right	far	1	intact	intact	8021b6b2-93f5-4b8a-981e-576768624e6e_fps_avg_aud.mp4	0	0	0.615245	0	1	up	blue	1	0.986	high
415	10	21	0	self	1.5	1.5112	green	1	up	up	GLO	right	far	1	intact	intact	16fe28b7-019b-49e7-9b4b-6b9fba85fe3d_fps_avg_aud.mp4	0	0	0.826278	0	1	right	green	1	0.996	high
415	10	22	0	self	1.5	1.50967	blue	0	up	up	GLO	right	far	1	intact	intact	79c2a399-1c19-4b6a-a7be-ad19cd183d03_fps_avg_aud.mp4	0	0	0.498671	0	1	up	blue	1	1.006	high
415	10	23	0	self	1.5	1.513	blue	1	right	right	GLO	left	far	1	intact	intact	Aug10_fps_avg_aud.mp4	0	0	0.665266	0	1	up	blue	1	1.016	high
415	10	24	0	self	1.5	1.51345	green	0	right	right	GLO	left	close	1	intact	intact	Dec12_fps_avg_aud.mp4	0	0	0.589847	0	1	right	green	1	1.026	high
415	10	25	0	self	1.5	1.50899	green	1	left	left	GLO	left	close	1	intact	intact	ac9d3ec9-e996-4c12-9cee-27057f644981_fps_avg_aud.mp4	0	0	0.579665	0	1	right	green	1	1.036	high
415	10	26	0	self	1.5	1.51161	yellow	1	up	up	GLO	left	far	1	intact	intact	34cddff1-7a1a-4e71-be66-8a745a1d42f4_fps_avg_aud.mp4	0	0	0.799017	0	1	left	yellow	1	1.046	high
415	10	27	0	self	1.5	1.51418	yellow	1	down	down	GLO	left	close	1	intact	intact	7cff1761-7eb4-4352-9fd6-437bff370f37_fps_avg_aud.mp4	0	0	0.531366	0	1	left	yellow	1	1.056	high
415	10	28	0	self	1.5	NaN	green	0	right	right	GLO	none	close	1	intact	intact	Jan27_fps_avg_aud.mp4	0	0	NaN	NaN	NaN	none	none	NaN	1.056	high
415	10	29	0	self	1.5	NaN	red	1	right	right	GLO	none	far	1	intact	intact	8131cc16-56a9-45d8-8dab-20ead5938e0a_fps_avg_aud.mp4	0	0	NaN	NaN	NaN	none	none	NaN	1.056	high
415	10	30	0	self	1.5	NaN	green	1	left	left	GLO	none	far	1	intact	intact	2d9948f5-94d5-495f-a74e-80174a3c508a_fps_avg_aud.mp4	0	0	NaN	NaN	NaN	none	none	NaN	1.056	high
415	10	31	0	self	1.5	NaN	yellow	1	up	up	GLO	none	far	1	intact	intact	Mar23_fps_avg_aud.mp4	0	0	NaN	NaN	NaN	none	none	NaN	1.056	high
415	10	32	0	self	1.5	NaN	blue	0	up	up	GLO	none	far	1	intact	intact	b1ade3a7-f9fd-4229-8a80-df334c184531_fps_avg_aud.mp4	0	0	NaN	NaN	NaN	none	none	NaN	1.056	high
415	10	33	0	self	1.5	NaN	yellow	0	left	left	GLO	none	far	1	intact	intact	October_2015_fps_avg_aud.mp4	0	0	NaN	NaN	NaN	none	none	NaN	1.056	high
415	10	34	0	self	1.5	NaN	yellow	0	left	left	GLO	none	far	1	intact	intact	de76edf3-7c24-4386-8e6c-01dd4c15291d_fps_avg_aud.mp4	0	0	NaN	NaN	NaN	none	none	NaN	1.056	high
415	10	35	0	self	1.5	NaN	red	1	up	up	GLO	none	close	1	intact	intact	b70b2fc0-8728-4c47-a0fd-a887a904f1ee_fps_avg_aud.mp4	0	0	NaN	NaN	NaN	none	none	NaN	1.056	high
415	10	36	0	self	1.5	NaN	green	0	right	right	GLO	none	close	1	intact	intact	jan31_2016_fps_avg_aud.mp4	0	0	NaN	NaN	NaN	none	none	NaN	1.056	high
415	10	37	0	self	1.5	NaN	blue	0	up	up	GLO	none	far	1	intact	intact	d474c6db-95a4-4753-b361-ee940450cd55_fps_avg_aud.mp4	0	0	NaN	NaN	NaN	none	none	NaN	1.056	high
415	11	1	0	auto	1.5	1.51673	blue	0	up	up	GLO	right	close	1	intact	intact	ea6675d4-3684-48c3-9bd0-c32d38c48c9e_fps_avg_aud.mp4	1	17	1.45923	0.0990879	1	up	blue	1	1.057	low
415	11	2	0	auto	1.5	1.51557	yellow	0	left	left	GLO	right	close	0	intact	none	none	0	0	1.44795	0	1	left	yellow	1	1.058	low
415	11	3	0	auto	1.5	1.50919	yellow	1	up	up	GLO	left	far	0	intact	none	none	0	0	0.698339	0	1	left	yellow	1	1.059	low
415	11	4	0	auto	1.5	1.51222	yellow	1	right	right	GLO	left	close	0	intact	none	none	0	0	0.514756	0	1	left	yellow	1	1.06	low
415	11	5	0	auto	1.5	1.51225	green	0	right	right	GLO	right	close	0	intact	none	none	0	0	0.582468	0	1	right	green	1	1.061	low
415	11	6	0	auto	1.5	1.51175	blue	0	up	up	GLO	left	close	1	intact	intact	Oct31_fps_avg_aud.mp4	1	0	0.554539	0	1	up	blue	1	1.062	low
415	11	7	0	auto	1.5	1.51062	blue	1	right	right	GLO	left	close	1	intact	intact	Feb25_fps_avg_aud.mp4	1	0	0.631713	0	1	up	blue	1	1.063	low
415	11	8	0	auto	1.5	1.51149	red	1	left	left	GLO	left	far	0	intact	none	none	0	0	0.498656	0	1	down	red	1	1.064	low
415	11	9	0	auto	1.5	1.51189	red	1	right	right	GLO	left	close	1	intact	intact	9874ea15-f388-4d7d-ae5d-51013a69fee3_fps_avg_aud.mp4	1	0	0.565166	0	1	down	red	1	1.065	low
415	11	10	0	auto	1.5	1.51123	yellow	1	down	down	GLO	right	far	1	intact	intact	Oct19_fps_avg_aud.mp4	1	9	1.7812	0.0314806	1	left	yellow	1	1.066	low
415	11	11	0	auto	1.5	1.51161	yellow	0	left	left	GLO	right	close	1	intact	intact	31c3bae2-faf4-4718-b53b-2e88624b3fa5_fps_avg_aud.mp4	1	0	0.454277	0	1	left	yellow	1	1.067	low
415	11	12	0	auto	1.5	1.51168	green	1	down	down	GLO	left	far	1	intact	intact	86e20a10-46be-4f52-b05b-06877412cf60_fps_avg_aud.mp4	1	4	1.18154	0.0236741	1	right	green	1	1.068	low
415	11	13	0	auto	1.5	1.51054	blue	1	down	down	GLO	right	close	1	intact	intact	August1_fps_avg_aud.mp4	1	17	0.747712	0.0999676	1	up	blue	1	1.069	low
415	11	14	0	auto	1.5	1.51153	red	1	up	up	GLO	left	far	1	intact	intact	8d515f52-784f-4547-b4bd-dfedabc9c31a_fps_avg_aud.mp4	1	20	0.63363	0.0985571	1	down	red	1	1.07	low
415	11	15	0	auto	1.5	1.50987	yellow	0	left	left	GLO	left	far	0	intact	none	none	0	0	0.698376	0	1	left	yellow	1	1.071	low
415	11	16	0	auto	1.5	1.51171	yellow	1	down	down	GLO	left	close	1	intact	intact	79665cdb-61c8-40fb-9ffc-0682e57caf2f_fps_avg_aud.mp4	1	0	0.580681	0	1	left	yellow	1	1.072	low
415	11	17	0	auto	1.5	1.51182	yellow	0	left	left	GLO	right	far	1	intact	intact	4d681112-07b2-4265-a7e1-d188bc4f8511_fps_avg_aud.mp4	1	0	0.462955	0	1	left	yellow	1	1.073	low
415	11	18	0	auto	1.5	1.51377	red	0	down	down	GLO	left	close	1	intact	intact	8a8f2893-dc1c-441b-8b88-03672ad98bf9_fps_avg_aud.mp4	1	0	0.714311	0	1	down	red	1	1.074	low
415	11	19	0	auto	1.5	1.51182	green	0	right	right	GLO	right	far	1	intact	intact	c1a7aae7-8c3e-4488-9566-07a14f982e35_fps_avg_aud.mp4	1	0	0.544762	0	1	right	green	1	1.075	low
415	11	20	0	auto	1.5	1.51293	yellow	1	down	down	GLO	right	far	1	intact	intact	Sep30_fps_avg_aud.mp4	1	0	0.688102	0	1	left	yellow	1	1.076	low
415	11	21	0	auto	1.5	1.51095	green	0	right	right	GLO	right	close	1	intact	intact	039e9adf-0d8d-4d86-a59c-e7770b0ae616_fps_avg_aud.mp4	1	0	0.481836	0	1	right	green	1	1.077	low
415	11	22	0	auto	1.5	1.51224	red	1	up	up	GLO	right	close	1	intact	intact	june_19_2015_fps_avg_aud.mp4	1	0	0.86183	0	1	down	red	1	1.078	low
415	11	23	0	auto	1.5	1.51232	green	1	left	left	GLO	left	far	1	intact	intact	Mar25_fps_avg_aud.mp4	1	6	1.54893	0.0334439	1	right	green	1	1.079	low
415	11	24	0	auto	1.5	1.51101	green	1	down	down	GLO	right	close	1	intact	intact	Jul10_fps_avg_aud.mp4	1	0	0.513792	0	1	right	green	1	1.08	low
