ID	Block	Trials	Practice	VideoStart	ITI	ITI_measured	Color	Conflict	Global	Local	Task	Video_pos	Video_dist	Video_present	Video_cat_cond	Video_cat	Video	VideoPlayed	VideoCheck	RT	DT	Visits	KeyPress	KeyColor	Correct	Reward	RewardCond
416	1	1	1	none	0.5	8.78836	yellow	0	left	left	GLO	left	close	0	intact	none	none	0	0	1.19765	0	1	left	yellow	1	0	0
416	1	2	1	none	0.5	0.513129	red	0	down	down	GLO	left	far	0	intact	none	none	0	0	1.25867	0	1	down	red	1	0	0
416	1	3	1	none	0.5	0.512278	yellow	0	left	left	GLO	right	far	0	intact	none	none	0	0	0.968958	0	1	left	yellow	1	0	0
416	1	4	1	none	0.5	0.514927	blue	1	down	down	GLO	right	close	0	intact	none	none	0	0	1.33776	0	1	up	blue	1	0	0
416	1	5	1	none	0.5	0.51108	red	1	up	up	GLO	left	close	0	intact	none	none	0	0	1.22858	0	1	down	red	1	0	0
416	1	6	1	none	0.5	0.51489	blue	0	up	up	GLO	right	close	0	intact	none	none	0	0	0.774184	0	1	up	blue	1	0	0
416	1	7	1	none	0.5	0.508089	red	1	left	left	GLO	right	far	0	intact	none	none	0	0	1.14798	0	1	down	red	1	0	0
416	1	8	1	none	0.5	0.514008	red	1	left	left	GLO	right	close	0	intact	none	none	0	0	0.675563	0	1	down	red	1	0	0
416	1	9	1	none	0.5	0.514398	red	0	down	down	GLO	left	close	0	intact	none	none	0	0	0.515611	0	1	down	red	1	0	0
416	1	10	1	none	0.5	0.515351	green	0	right	right	GLO	left	far	0	intact	none	none	0	0	0.991373	0	1	right	green	1	0	0
416	1	11	1	none	0.5	0.513902	blue	1	right	right	GLO	right	far	0	intact	none	none	0	0	1.03269	0	1	up	blue	1	0	0
416	1	12	1	none	0.5	0.515135	green	1	left	left	GLO	left	far	0	intact	none	none	0	0	2.50816	0	1	right	green	1	0	0
416	1	13	1	none	0.5	0.5133	blue	0	up	up	GLO	left	far	0	intact	none	none	0	0	0.948783	0	1	up	blue	1	0	0
416	1	14	1	none	0.5	0.51574	blue	1	down	down	GLO	right	close	0	intact	none	none	0	0	0.885939	0	1	up	blue	1	0	0
416	1	15	1	none	0.5	0.514504	green	0	right	right	GLO	left	far	0	intact	none	none	0	0	1.42751	0	1	right	green	1	0	0
416	1	16	1	none	0.5	0.514266	blue	0	up	up	GLO	right	far	0	intact	none	none	0	0	0.69965	0	1	up	blue	1	0	0
416	1	17	1	none	0.5	0.515726	blue	1	left	left	GLO	right	close	0	intact	none	none	0	0	0.642178	0	1	up	blue	1	0	0
416	1	18	1	none	0.5	0.515596	green	0	right	right	GLO	left	far	0	intact	none	none	0	0	0.881419	0	1	right	green	1	0	0
416	1	19	1	none	0.5	0.515131	green	1	up	up	GLO	right	close	0	intact	none	none	0	0	0.654589	0	1	up	blue	0	0	0
416	1	20	1	none	0.5	0.513994	blue	1	left	left	GLO	left	close	0	intact	none	none	0	0	0.679866	0	1	up	blue	1	0	0
416	1	21	1	none	0.5	0.51633	yellow	0	left	left	GLO	left	far	0	intact	none	none	0	0	1.36517	0	1	left	yellow	1	0	0
416	1	22	1	none	0.5	0.515182	green	1	down	down	GLO	right	close	0	intact	none	none	0	0	1.43275	0	1	right	green	1	0	0
416	1	23	1	none	0.5	0.514477	red	0	down	down	GLO	left	far	0	intact	none	none	0	0	1.87503	0	1	down	red	1	0	0
416	1	24	1	none	0.5	0.511068	red	0	down	down	GLO	right	far	0	intact	none	none	0	0	1.08558	0	1	down	red	1	0	0
416	1	25	1	none	0.5	0.514217	blue	0	up	up	GLO	right	close	0	intact	none	none	0	0	1.18064	0	1	up	blue	1	0	0
416	1	26	1	none	0.5	0.515401	red	0	down	down	GLO	left	close	0	intact	none	none	0	0	0.779568	0	1	down	red	1	0	0
416	1	27	1	none	0.5	0.516573	yellow	0	left	left	GLO	left	close	0	intact	none	none	0	0	0.932627	0	1	left	yellow	1	0	0
416	1	28	1	none	0.5	0.513441	yellow	0	left	left	GLO	left	close	0	intact	none	none	0	0	0.667509	0	1	left	yellow	1	0	0
416	1	29	1	none	0.5	0.515123	red	1	right	right	GLO	left	close	0	intact	none	none	0	0	1.42623	0	1	down	red	1	0	0
416	1	30	1	none	0.5	0.515936	green	1	left	left	GLO	left	close	0	intact	none	none	0	0	1.26597	0	1	right	green	1	0	0
416	1	31	1	none	0.5	0.513573	red	1	up	up	GLO	right	far	0	intact	none	none	0	0	1.14872	0	1	down	red	1	0	0
416	1	32	1	none	0.5	0.513574	yellow	1	up	up	GLO	left	close	0	intact	none	none	0	0	0.847069	0	1	left	yellow	1	0	0
416	1	33	1	none	0.5	0.514581	green	0	right	right	GLO	right	far	0	intact	none	none	0	0	1.24822	0	1	right	green	1	0	0
416	1	34	1	none	0.5	0.51262	yellow	1	right	right	GLO	left	far	0	intact	none	none	0	0	0.931543	0	1	left	yellow	1	0	0
416	1	35	1	none	0.5	0.512929	blue	1	right	right	GLO	right	close	0	intact	none	none	0	0	1.00908	0	1	up	blue	1	0	0
416	1	36	1	none	0.5	0.512996	red	0	down	down	GLO	left	close	0	intact	none	none	0	0	1.59966	0	1	down	red	1	0	0
416	1	37	1	none	0.5	0.514744	red	0	down	down	GLO	left	close	0	intact	none	none	0	0	0.714281	0	1	down	red	1	0	0
416	1	38	1	none	0.5	0.515579	yellow	0	left	left	GLO	left	far	0	intact	none	none	0	0	0.629315	0	1	left	yellow	1	0	0
416	1	39	1	none	0.5	0.512059	red	0	down	down	GLO	right	close	0	intact	none	none	0	0	0.698997	0	1	down	red	1	0	0
416	1	40	1	none	0.5	0.511735	yellow	1	down	down	GLO	right	far	0	intact	none	none	0	0	0.715951	0	1	left	yellow	1	0	0
416	1	41	1	none	0.5	0.514116	green	0	right	right	GLO	right	far	0	intact	none	none	0	0	1.12961	0	1	right	green	1	0	0
416	1	42	1	none	0.5	0.512318	red	1	left	left	GLO	left	far	0	intact	none	none	0	0	0.949199	0	1	down	red	1	0	0
416	1	43	1	none	0.5	0.51342	yellow	0	left	left	GLO	right	far	0	intact	none	none	0	0	0.582602	0	1	left	yellow	1	0	0
416	1	44	1	none	0.5	0.513157	yellow	1	right	right	GLO	left	close	0	intact	none	none	0	0	0.598636	0	1	left	yellow	1	0	0
416	1	45	1	none	0.5	0.512945	yellow	1	down	down	GLO	right	close	0	intact	none	none	0	0	0.414195	0	1	left	yellow	1	0	0
416	1	46	1	none	0.5	0.513229	yellow	0	left	left	GLO	left	far	0	intact	none	none	0	0	0.412547	0	1	left	yellow	1	0	0
416	1	47	1	none	1.5	1.51596	green	1	down	down	GLO	right	close	0	intact	none	none	0	0	1.26548	0	1	right	green	1	0	0
416	1	48	1	none	1.5	1.51174	yellow	0	left	left	GLO	left	far	0	intact	none	none	0	0	1.11449	0	1	left	yellow	1	0	0
416	1	49	1	none	1.5	1.51207	green	0	right	right	GLO	right	close	0	intact	none	none	0	0	1.13308	0	1	right	green	1	0	0
416	1	50	1	none	1.5	1.5153	green	0	right	right	GLO	right	far	0	intact	none	none	0	0	0.664509	0	1	right	green	1	0	0
416	1	51	1	none	1.5	1.51172	green	1	left	left	GLO	left	far	0	intact	none	none	0	0	0.6141	0	1	right	green	1	0	0
416	1	52	1	none	1.5	1.51233	red	1	up	up	GLO	right	far	0	intact	none	none	0	0	1.03133	0	1	down	red	1	0	0
416	1	53	1	none	1.5	1.51319	red	1	up	up	GLO	left	close	0	intact	none	none	0	0	0.763886	0	1	down	red	1	0	0
416	1	54	1	none	1.5	1.51082	green	1	left	left	GLO	right	far	0	intact	none	none	0	0	1.46455	0	1	right	green	1	0	0
416	1	55	1	none	1.5	1.5122	blue	1	left	left	GLO	left	far	0	intact	none	none	0	0	1.215	0	1	up	blue	1	0	0
416	1	56	1	none	1.5	1.51016	green	0	right	right	GLO	right	close	0	intact	none	none	0	0	0.879422	0	1	right	green	1	0	0
416	1	57	1	none	1.5	1.51331	yellow	1	up	up	GLO	right	far	0	intact	none	none	0	0	0.773584	0	1	left	yellow	1	0	0
416	1	58	1	none	1.5	1.51154	red	0	down	down	GLO	left	close	0	intact	none	none	0	0	1.06627	0	1	down	red	1	0	0
416	1	59	1	none	1.5	1.51202	yellow	0	left	left	GLO	right	far	0	intact	none	none	0	0	0.548527	0	1	left	yellow	1	0	0
416	1	60	1	none	1.5	1.51128	green	1	left	left	GLO	left	close	0	intact	none	none	0	0	0.512521	0	1	up	blue	0	0	0
416	1	61	1	none	1.5	1.51077	blue	1	down	down	GLO	left	far	0	intact	none	none	0	0	0.698253	0	1	up	blue	1	0	0
416	1	62	1	none	1.5	1.51405	yellow	1	up	up	GLO	right	close	0	intact	none	none	0	0	0.628097	0	1	left	yellow	1	0	0
416	1	63	1	none	1.5	1.51133	red	0	down	down	GLO	left	far	0	intact	none	none	0	0	0.730687	0	1	down	red	1	0	0
416	1	64	1	none	1.5	1.50971	green	1	left	left	GLO	right	close	0	intact	none	none	0	0	1.31491	0	1	right	green	1	0	0
416	1	65	1	none	1.5	1.51616	red	0	down	down	GLO	left	close	0	intact	none	none	0	0	1.68171	0	1	down	red	1	0	0
416	1	66	1	none	1.5	1.51112	blue	1	down	down	GLO	left	close	0	intact	none	none	0	0	1.24096	0	1	up	blue	1	0	0
416	1	67	1	none	1.5	1.51121	green	1	up	up	GLO	right	far	0	intact	none	none	0	0	1.06504	0	1	right	green	1	0	0
416	1	68	1	none	1.5	1.51113	yellow	1	right	right	GLO	right	far	0	intact	none	none	0	0	0.748345	0	1	left	yellow	1	0	0
416	1	69	1	none	1.5	1.51236	yellow	0	left	left	GLO	left	far	0	intact	none	none	0	0	0.815245	0	1	left	yellow	1	0	0
416	1	70	1	none	1.5	1.51018	yellow	1	up	up	GLO	right	close	0	intact	none	none	0	0	0.599476	0	1	left	yellow	1	0	0
416	1	71	1	none	1.5	1.51134	red	1	right	right	GLO	left	close	0	intact	none	none	0	0	2.18106	0	1	down	red	1	0	0
416	1	72	1	none	1.5	1.51321	blue	0	up	up	GLO	right	far	0	intact	none	none	0	0	1.24882	0	1	up	blue	1	0	0
416	1	73	1	none	1.5	1.51168	blue	1	left	left	GLO	right	close	0	intact	none	none	0	0	0.96429	0	1	up	blue	1	0	0
416	1	74	1	none	1.5	1.51252	red	1	left	left	GLO	right	far	0	intact	none	none	0	0	1.57366	0	1	down	red	1	0	0
416	1	75	1	none	1.5	1.51157	blue	0	up	up	GLO	right	close	0	intact	none	none	0	0	0.865429	0	1	up	blue	1	0	0
416	1	76	1	none	1.5	1.51244	yellow	1	down	down	GLO	right	close	0	intact	none	none	0	0	0.691015	0	1	left	yellow	1	0	0
416	1	77	1	none	1.5	1.51115	red	0	down	down	GLO	left	close	0	intact	none	none	0	0	1.2993	0	1	down	red	1	0	0
416	1	78	1	none	1.5	1.51259	yellow	0	left	left	GLO	right	close	0	intact	none	none	0	0	0.806761	0	1	left	yellow	1	0	0
416	1	79	1	none	1.5	NaN	yellow	0	left	left	GLO	none	close	0	intact	none	none	0	0	NaN	NaN	NaN	none	none	NaN	0	0
416	1	80	1	none	1.5	NaN	blue	0	up	up	GLO	none	close	0	intact	none	none	0	0	NaN	NaN	NaN	none	none	NaN	0	0
416	1	81	1	none	1.5	NaN	green	0	right	right	GLO	none	close	0	intact	none	none	0	0	NaN	NaN	NaN	none	none	NaN	0	0
416	1	82	1	none	1.5	NaN	yellow	1	up	up	GLO	none	far	0	intact	none	none	0	0	NaN	NaN	NaN	none	none	NaN	0	0
416	1	83	1	none	1.5	NaN	yellow	1	down	down	GLO	none	far	0	intact	none	none	0	0	NaN	NaN	NaN	none	none	NaN	0	0
416	1	84	1	none	1.5	NaN	blue	0	up	up	GLO	none	far	0	intact	none	none	0	0	NaN	NaN	NaN	none	none	NaN	0	0
416	1	85	1	none	1.5	NaN	red	0	down	down	GLO	none	close	0	intact	none	none	0	0	NaN	NaN	NaN	none	none	NaN	0	0
416	1	86	1	none	1.5	NaN	green	1	down	down	GLO	none	close	0	intact	none	none	0	0	NaN	NaN	NaN	none	none	NaN	0	0
416	1	87	1	none	1.5	NaN	blue	1	right	right	GLO	none	far	0	intact	none	none	0	0	NaN	NaN	NaN	none	none	NaN	0	0
416	1	88	1	none	1.5	NaN	yellow	1	down	down	GLO	none	far	0	intact	none	none	0	0	NaN	NaN	NaN	none	none	NaN	0	0
416	1	89	1	none	1.5	NaN	yellow	1	right	right	GLO	none	close	0	intact	none	none	0	0	NaN	NaN	NaN	none	none	NaN	0	0
416	1	90	1	none	1.5	NaN	red	1	left	left	GLO	none	far	0	intact	none	none	0	0	NaN	NaN	NaN	none	none	NaN	0	0
416	1	91	1	none	1.5	NaN	green	0	right	right	GLO	none	close	0	intact	none	none	0	0	NaN	NaN	NaN	none	none	NaN	0	0
416	1	92	1	none	1.5	NaN	green	1	up	up	GLO	none	far	0	intact	none	none	0	0	NaN	NaN	NaN	none	none	NaN	0	0
416	1	93	1	none	1.5	NaN	blue	1	right	right	GLO	none	close	0	intact	none	none	0	0	NaN	NaN	NaN	none	none	NaN	0	0
416	1	94	1	none	1.5	NaN	green	1	down	down	GLO	none	far	0	intact	none	none	0	0	NaN	NaN	NaN	none	none	NaN	0	0
416	1	95	1	none	1.5	NaN	green	0	right	right	GLO	none	close	0	intact	none	none	0	0	NaN	NaN	NaN	none	none	NaN	0	0
416	1	96	1	none	1.5	NaN	red	1	left	left	GLO	none	close	0	intact	none	none	0	0	NaN	NaN	NaN	none	none	NaN	0	0
416	1	97	1	none	1.5	NaN	green	1	up	up	GLO	none	far	0	intact	none	none	0	0	NaN	NaN	NaN	none	none	NaN	0	0
416	1	98	1	none	1.5	NaN	blue	1	left	left	GLO	none	close	0	intact	none	none	0	0	NaN	NaN	NaN	none	none	NaN	0	0
416	1	99	1	none	1.5	NaN	yellow	1	down	down	GLO	none	far	0	intact	none	none	0	0	NaN	NaN	NaN	none	none	NaN	0	0
416	1	100	1	none	1.5	NaN	red	0	down	down	GLO	none	close	0	intact	none	none	0	0	NaN	NaN	NaN	none	none	NaN	0	0
416	1	101	1	none	1.5	NaN	yellow	0	left	left	GLO	none	far	0	intact	none	none	0	0	NaN	NaN	NaN	none	none	NaN	0	0
416	1	102	1	none	1.5	NaN	red	0	down	down	GLO	none	close	0	intact	none	none	0	0	NaN	NaN	NaN	none	none	NaN	0	0
416	1	103	1	none	1.5	NaN	yellow	0	left	left	GLO	none	close	0	intact	none	none	0	0	NaN	NaN	NaN	none	none	NaN	0	0
416	1	104	1	none	1.5	NaN	yellow	0	left	left	GLO	none	far	0	intact	none	none	0	0	NaN	NaN	NaN	none	none	NaN	0	0
416	1	105	1	none	1.5	NaN	blue	1	down	down	GLO	none	far	0	intact	none	none	0	0	NaN	NaN	NaN	none	none	NaN	0	0
416	1	106	1	none	1.5	NaN	red	0	down	down	GLO	none	close	0	intact	none	none	0	0	NaN	NaN	NaN	none	none	NaN	0	0
416	1	107	1	none	1.5	NaN	green	0	right	right	GLO	none	far	0	intact	none	none	0	0	NaN	NaN	NaN	none	none	NaN	0	0
416	1	108	1	none	1.5	NaN	green	0	right	right	GLO	none	far	0	intact	none	none	0	0	NaN	NaN	NaN	none	none	NaN	0	0
416	1	109	1	none	1.5	NaN	red	0	down	down	GLO	none	far	0	intact	none	none	0	0	NaN	NaN	NaN	none	none	NaN	0	0
416	1	110	1	none	1.5	NaN	green	0	right	right	GLO	none	close	0	intact	none	none	0	0	NaN	NaN	NaN	none	none	NaN	0	0
416	1	111	1	none	1.5	NaN	green	1	left	left	GLO	none	far	0	intact	none	none	0	0	NaN	NaN	NaN	none	none	NaN	0	0
416	1	112	1	none	1.5	NaN	blue	1	down	down	GLO	none	close	0	intact	none	none	0	0	NaN	NaN	NaN	none	none	NaN	0	0
416	1	113	1	none	1.5	NaN	green	1	down	down	GLO	none	close	0	intact	none	none	0	0	NaN	NaN	NaN	none	none	NaN	0	0
416	1	114	1	none	1.5	NaN	yellow	0	left	left	GLO	none	far	0	intact	none	none	0	0	NaN	NaN	NaN	none	none	NaN	0	0
416	1	115	1	none	1.5	NaN	green	0	right	right	GLO	none	close	0	intact	none	none	0	0	NaN	NaN	NaN	none	none	NaN	0	0
416	1	116	1	none	1.5	NaN	blue	1	left	left	GLO	none	close	0	intact	none	none	0	0	NaN	NaN	NaN	none	none	NaN	0	0
416	1	117	1	none	1.5	NaN	green	1	up	up	GLO	none	far	0	intact	none	none	0	0	NaN	NaN	NaN	none	none	NaN	0	0
416	1	118	1	none	1.5	NaN	yellow	1	up	up	GLO	none	far	0	intact	none	none	0	0	NaN	NaN	NaN	none	none	NaN	0	0
416	1	119	1	none	1.5	NaN	green	0	right	right	GLO	none	far	0	intact	none	none	0	0	NaN	NaN	NaN	none	none	NaN	0	0
416	1	120	1	none	1.5	NaN	green	0	right	right	GLO	none	close	0	intact	none	none	0	0	NaN	NaN	NaN	none	none	NaN	0	0
416	1	121	1	none	1.5	NaN	red	1	left	left	GLO	none	close	0	intact	none	none	0	0	NaN	NaN	NaN	none	none	NaN	0	0
416	1	122	1	none	1.5	NaN	yellow	1	right	right	GLO	none	close	0	intact	none	none	0	0	NaN	NaN	NaN	none	none	NaN	0	0
416	1	123	1	none	1.5	NaN	yellow	1	right	right	GLO	none	close	0	intact	none	none	0	0	NaN	NaN	NaN	none	none	NaN	0	0
416	1	124	1	none	1.5	NaN	blue	1	down	down	GLO	none	far	0	intact	none	none	0	0	NaN	NaN	NaN	none	none	NaN	0	0
416	1	125	1	none	1.5	NaN	yellow	1	down	down	GLO	none	close	0	intact	none	none	0	0	NaN	NaN	NaN	none	none	NaN	0	0
416	1	126	1	none	1.5	NaN	green	0	right	right	GLO	none	close	0	intact	none	none	0	0	NaN	NaN	NaN	none	none	NaN	0	0
416	1	127	1	none	1.5	NaN	yellow	0	left	left	GLO	none	far	0	intact	none	none	0	0	NaN	NaN	NaN	none	none	NaN	0	0
416	1	128	1	none	1.5	NaN	yellow	1	up	up	GLO	none	close	0	intact	none	none	0	0	NaN	NaN	NaN	none	none	NaN	0	0
416	1	129	1	none	1.5	NaN	yellow	0	left	left	GLO	none	far	0	intact	none	none	0	0	NaN	NaN	NaN	none	none	NaN	0	0
416	1	130	1	none	1.5	NaN	red	1	right	right	GLO	none	close	0	intact	none	none	0	0	NaN	NaN	NaN	none	none	NaN	0	0
416	1	131	1	none	1.5	NaN	green	1	up	up	GLO	none	close	0	intact	none	none	0	0	NaN	NaN	NaN	none	none	NaN	0	0
416	1	132	1	none	1.5	NaN	red	0	down	down	GLO	none	far	0	intact	none	none	0	0	NaN	NaN	NaN	none	none	NaN	0	0
416	1	133	1	none	1.5	NaN	yellow	0	left	left	GLO	none	far	0	intact	none	none	0	0	NaN	NaN	NaN	none	none	NaN	0	0
416	1	134	1	none	1.5	NaN	yellow	1	up	up	GLO	none	far	0	intact	none	none	0	0	NaN	NaN	NaN	none	none	NaN	0	0
416	1	135	1	none	1.5	NaN	blue	1	down	down	GLO	none	close	0	intact	none	none	0	0	NaN	NaN	NaN	none	none	NaN	0	0
416	1	136	1	none	1.5	NaN	green	0	right	right	GLO	none	far	0	intact	none	none	0	0	NaN	NaN	NaN	none	none	NaN	0	0
416	1	137	1	none	1.5	NaN	green	1	left	left	GLO	none	far	0	intact	none	none	0	0	NaN	NaN	NaN	none	none	NaN	0	0
416	1	138	1	none	1.5	NaN	green	0	right	right	GLO	none	far	0	intact	none	none	0	0	NaN	NaN	NaN	none	none	NaN	0	0
416	1	139	1	none	1.5	NaN	red	0	down	down	GLO	none	close	0	intact	none	none	0	0	NaN	NaN	NaN	none	none	NaN	0	0
416	1	140	1	none	1.5	NaN	green	1	up	up	GLO	none	far	0	intact	none	none	0	0	NaN	NaN	NaN	none	none	NaN	0	0
416	1	141	1	none	1.5	NaN	blue	1	right	right	GLO	none	far	0	intact	none	none	0	0	NaN	NaN	NaN	none	none	NaN	0	0
416	1	142	1	none	1.5	NaN	red	0	down	down	GLO	none	far	0	intact	none	none	0	0	NaN	NaN	NaN	none	none	NaN	0	0
416	1	143	1	none	1.5	NaN	red	1	right	right	GLO	none	close	0	intact	none	none	0	0	NaN	NaN	NaN	none	none	NaN	0	0
416	1	144	1	none	1.5	NaN	green	0	right	right	GLO	none	close	0	intact	none	none	0	0	NaN	NaN	NaN	none	none	NaN	0	0
416	1	145	1	none	1.5	NaN	green	1	up	up	GLO	none	far	0	intact	none	none	0	0	NaN	NaN	NaN	none	none	NaN	0	0
416	1	146	1	none	1.5	NaN	green	0	right	right	GLO	none	close	0	intact	none	none	0	0	NaN	NaN	NaN	none	none	NaN	0	0
416	1	147	1	none	1.5	NaN	yellow	1	down	down	GLO	none	far	0	intact	none	none	0	0	NaN	NaN	NaN	none	none	NaN	0	0
416	1	148	1	none	1.5	NaN	red	0	down	down	GLO	none	far	0	intact	none	none	0	0	NaN	NaN	NaN	none	none	NaN	0	0
416	1	149	1	none	1.5	NaN	blue	0	up	up	GLO	none	far	0	intact	none	none	0	0	NaN	NaN	NaN	none	none	NaN	0	0
416	1	150	1	none	1.5	NaN	blue	1	down	down	GLO	none	close	0	intact	none	none	0	0	NaN	NaN	NaN	none	none	NaN	0	0
416	1	151	1	none	1.5	NaN	yellow	0	left	left	GLO	none	far	0	intact	none	none	0	0	NaN	NaN	NaN	none	none	NaN	0	0
416	1	152	1	none	1.5	NaN	yellow	1	right	right	GLO	none	far	0	intact	none	none	0	0	NaN	NaN	NaN	none	none	NaN	0	0
416	1	153	1	none	1.5	NaN	blue	1	left	left	GLO	none	far	0	intact	none	none	0	0	NaN	NaN	NaN	none	none	NaN	0	0
416	1	154	1	none	1.5	NaN	red	0	down	down	GLO	none	close	0	intact	none	none	0	0	NaN	NaN	NaN	none	none	NaN	0	0
416	1	155	1	none	1.5	NaN	blue	0	up	up	GLO	none	far	0	intact	none	none	0	0	NaN	NaN	NaN	none	none	NaN	0	0
416	1	156	1	none	1.5	NaN	blue	1	right	right	GLO	none	close	0	intact	none	none	0	0	NaN	NaN	NaN	none	none	NaN	0	0
416	1	157	1	none	1.5	NaN	yellow	0	left	left	GLO	none	close	0	intact	none	none	0	0	NaN	NaN	NaN	none	none	NaN	0	0
416	1	158	1	none	1.5	NaN	yellow	0	left	left	GLO	none	far	0	intact	none	none	0	0	NaN	NaN	NaN	none	none	NaN	0	0
416	1	159	1	none	1.5	NaN	yellow	1	up	up	GLO	none	far	0	intact	none	none	0	0	NaN	NaN	NaN	none	none	NaN	0	0
416	1	160	1	none	1.5	NaN	blue	1	left	left	GLO	none	close	0	intact	none	none	0	0	NaN	NaN	NaN	none	none	NaN	0	0
416	1	161	1	none	1.5	NaN	yellow	0	left	left	GLO	none	close	0	intact	none	none	0	0	NaN	NaN	NaN	none	none	NaN	0	0
416	1	162	1	none	1.5	NaN	yellow	1	down	down	GLO	none	far	0	intact	none	none	0	0	NaN	NaN	NaN	none	none	NaN	0	0
416	1	163	1	none	1.5	NaN	green	1	up	up	GLO	none	close	0	intact	none	none	0	0	NaN	NaN	NaN	none	none	NaN	0	0
416	1	164	1	none	1.5	NaN	blue	1	left	left	GLO	none	far	0	intact	none	none	0	0	NaN	NaN	NaN	none	none	NaN	0	0
416	1	165	1	none	1.5	NaN	green	0	right	right	GLO	none	far	0	intact	none	none	0	0	NaN	NaN	NaN	none	none	NaN	0	0
416	1	166	1	none	1.5	NaN	blue	1	right	right	GLO	none	close	0	intact	none	none	0	0	NaN	NaN	NaN	none	none	NaN	0	0
416	1	167	1	none	1.5	NaN	green	0	right	right	GLO	none	far	0	intact	none	none	0	0	NaN	NaN	NaN	none	none	NaN	0	0
416	1	168	1	none	1.5	NaN	red	1	left	left	GLO	none	close	0	intact	none	none	0	0	NaN	NaN	NaN	none	none	NaN	0	0
416	1	169	1	none	1.5	NaN	green	1	left	left	GLO	none	close	0	intact	none	none	0	0	NaN	NaN	NaN	none	none	NaN	0	0
416	1	170	1	none	1.5	NaN	yellow	1	right	right	GLO	none	close	0	intact	none	none	0	0	NaN	NaN	NaN	none	none	NaN	0	0
416	1	171	1	none	1.5	NaN	red	0	down	down	GLO	none	close	0	intact	none	none	0	0	NaN	NaN	NaN	none	none	NaN	0	0
416	1	172	1	none	1.5	NaN	blue	1	right	right	GLO	none	far	0	intact	none	none	0	0	NaN	NaN	NaN	none	none	NaN	0	0
416	1	173	1	none	1.5	NaN	yellow	0	left	left	GLO	none	far	0	intact	none	none	0	0	NaN	NaN	NaN	none	none	NaN	0	0
416	1	174	1	none	1.5	NaN	green	0	right	right	GLO	none	far	0	intact	none	none	0	0	NaN	NaN	NaN	none	none	NaN	0	0
416	1	175	1	none	1.5	NaN	blue	0	up	up	GLO	none	far	0	intact	none	none	0	0	NaN	NaN	NaN	none	none	NaN	0	0
416	1	176	1	none	1.5	NaN	blue	0	up	up	GLO	none	far	0	intact	none	none	0	0	NaN	NaN	NaN	none	none	NaN	0	0
416	1	177	1	none	1.5	NaN	blue	1	left	left	GLO	none	close	0	intact	none	none	0	0	NaN	NaN	NaN	none	none	NaN	0	0
416	1	178	1	none	1.5	NaN	green	1	down	down	GLO	none	close	0	intact	none	none	0	0	NaN	NaN	NaN	none	none	NaN	0	0
416	1	179	1	none	1.5	NaN	yellow	0	left	left	GLO	none	far	0	intact	none	none	0	0	NaN	NaN	NaN	none	none	NaN	0	0
416	1	180	1	none	1.5	NaN	green	1	down	down	GLO	none	close	0	intact	none	none	0	0	NaN	NaN	NaN	none	none	NaN	0	0
416	1	181	1	none	1.5	NaN	red	0	down	down	GLO	none	far	0	intact	none	none	0	0	NaN	NaN	NaN	none	none	NaN	0	0
416	1	182	1	none	1.5	NaN	yellow	1	right	right	GLO	none	close	0	intact	none	none	0	0	NaN	NaN	NaN	none	none	NaN	0	0
416	1	183	1	none	1.5	NaN	blue	1	left	left	GLO	none	far	0	intact	none	none	0	0	NaN	NaN	NaN	none	none	NaN	0	0
416	1	184	1	none	1.5	NaN	green	0	right	right	GLO	none	close	0	intact	none	none	0	0	NaN	NaN	NaN	none	none	NaN	0	0
416	1	185	1	none	1.5	NaN	blue	1	right	right	GLO	none	close	0	intact	none	none	0	0	NaN	NaN	NaN	none	none	NaN	0	0
416	1	186	1	none	1.5	NaN	green	0	right	right	GLO	none	close	0	intact	none	none	0	0	NaN	NaN	NaN	none	none	NaN	0	0
416	1	187	1	none	1.5	NaN	blue	0	up	up	GLO	none	close	0	intact	none	none	0	0	NaN	NaN	NaN	none	none	NaN	0	0
416	1	188	1	none	1.5	NaN	blue	0	up	up	GLO	none	close	0	intact	none	none	0	0	NaN	NaN	NaN	none	none	NaN	0	0
416	1	189	1	none	1.5	NaN	red	0	down	down	GLO	none	close	0	intact	none	none	0	0	NaN	NaN	NaN	none	none	NaN	0	0
416	1	190	1	none	1.5	NaN	blue	0	up	up	GLO	none	close	0	intact	none	none	0	0	NaN	NaN	NaN	none	none	NaN	0	0
416	1	191	1	none	1.5	NaN	yellow	0	left	left	GLO	none	far	0	intact	none	none	0	0	NaN	NaN	NaN	none	none	NaN	0	0
416	1	192	1	none	1.5	NaN	yellow	1	down	down	GLO	none	close	0	intact	none	none	0	0	NaN	NaN	NaN	none	none	NaN	0	0
416	1	193	1	none	1.5	NaN	green	0	right	right	GLO	none	close	0	intact	none	none	0	0	NaN	NaN	NaN	none	none	NaN	0	0
416	1	194	1	none	1.5	NaN	green	0	right	right	GLO	none	far	0	intact	none	none	0	0	NaN	NaN	NaN	none	none	NaN	0	0
416	1	195	1	none	1.5	NaN	red	1	up	up	GLO	none	far	0	intact	none	none	0	0	NaN	NaN	NaN	none	none	NaN	0	0
416	1	196	1	none	1.5	NaN	green	1	up	up	GLO	none	close	0	intact	none	none	0	0	NaN	NaN	NaN	none	none	NaN	0	0
416	1	197	1	none	1.5	NaN	green	1	left	left	GLO	none	close	0	intact	none	none	0	0	NaN	NaN	NaN	none	none	NaN	0	0
416	1	198	1	none	1.5	NaN	yellow	0	left	left	GLO	none	close	0	intact	none	none	0	0	NaN	NaN	NaN	none	none	NaN	0	0
416	1	199	1	none	1.5	NaN	green	1	left	left	GLO	none	far	0	intact	none	none	0	0	NaN	NaN	NaN	none	none	NaN	0	0
416	1	200	1	none	1.5	NaN	green	0	right	right	GLO	none	close	0	intact	none	none	0	0	NaN	NaN	NaN	none	none	NaN	0	0
416	1	201	1	none	1.5	NaN	blue	1	down	down	GLO	none	far	0	intact	none	none	0	0	NaN	NaN	NaN	none	none	NaN	0	0
416	1	202	1	none	1.5	NaN	yellow	1	down	down	GLO	none	close	0	intact	none	none	0	0	NaN	NaN	NaN	none	none	NaN	0	0
416	1	203	1	none	1.5	NaN	blue	0	up	up	GLO	none	far	0	intact	none	none	0	0	NaN	NaN	NaN	none	none	NaN	0	0
416	1	204	1	none	1.5	NaN	blue	1	left	left	GLO	none	far	0	intact	none	none	0	0	NaN	NaN	NaN	none	none	NaN	0	0
416	1	205	1	none	1.5	NaN	blue	0	up	up	GLO	none	close	0	intact	none	none	0	0	NaN	NaN	NaN	none	none	NaN	0	0
416	1	206	1	none	1.5	NaN	yellow	0	left	left	GLO	none	close	0	intact	none	none	0	0	NaN	NaN	NaN	none	none	NaN	0	0
416	1	207	1	none	1.5	NaN	green	0	right	right	GLO	none	far	0	intact	none	none	0	0	NaN	NaN	NaN	none	none	NaN	0	0
416	1	208	1	none	1.5	NaN	green	1	left	left	GLO	none	far	0	intact	none	none	0	0	NaN	NaN	NaN	none	none	NaN	0	0
416	1	209	1	none	1.5	NaN	red	0	down	down	GLO	none	far	0	intact	none	none	0	0	NaN	NaN	NaN	none	none	NaN	0	0
416	1	210	1	none	1.5	NaN	yellow	1	right	right	GLO	none	far	0	intact	none	none	0	0	NaN	NaN	NaN	none	none	NaN	0	0
416	1	211	1	none	1.5	NaN	green	0	right	right	GLO	none	far	0	intact	none	none	0	0	NaN	NaN	NaN	none	none	NaN	0	0
416	1	212	1	none	1.5	NaN	blue	1	left	left	GLO	none	close	0	intact	none	none	0	0	NaN	NaN	NaN	none	none	NaN	0	0
416	1	213	1	none	1.5	NaN	green	1	down	down	GLO	none	far	0	intact	none	none	0	0	NaN	NaN	NaN	none	none	NaN	0	0
416	1	214	1	none	1.5	NaN	yellow	1	up	up	GLO	none	far	0	intact	none	none	0	0	NaN	NaN	NaN	none	none	NaN	0	0
416	1	215	1	none	1.5	NaN	green	1	left	left	GLO	none	far	0	intact	none	none	0	0	NaN	NaN	NaN	none	none	NaN	0	0
416	1	216	1	none	1.5	NaN	green	0	right	right	GLO	none	close	0	intact	none	none	0	0	NaN	NaN	NaN	none	none	NaN	0	0
416	1	217	1	none	1.5	NaN	red	1	right	right	GLO	none	far	0	intact	none	none	0	0	NaN	NaN	NaN	none	none	NaN	0	0
416	1	218	1	none	1.5	NaN	blue	0	up	up	GLO	none	far	0	intact	none	none	0	0	NaN	NaN	NaN	none	none	NaN	0	0
416	1	219	1	none	1.5	NaN	yellow	0	left	left	GLO	none	far	0	intact	none	none	0	0	NaN	NaN	NaN	none	none	NaN	0	0
416	1	220	1	none	1.5	NaN	red	1	left	left	GLO	none	far	0	intact	none	none	0	0	NaN	NaN	NaN	none	none	NaN	0	0
416	1	221	1	none	1.5	NaN	red	1	up	up	GLO	none	far	0	intact	none	none	0	0	NaN	NaN	NaN	none	none	NaN	0	0
416	1	222	1	none	1.5	NaN	blue	0	up	up	GLO	none	far	0	intact	none	none	0	0	NaN	NaN	NaN	none	none	NaN	0	0
416	1	223	1	none	1.5	NaN	red	1	up	up	GLO	none	far	0	intact	none	none	0	0	NaN	NaN	NaN	none	none	NaN	0	0
416	1	224	1	none	1.5	NaN	yellow	1	up	up	GLO	none	close	0	intact	none	none	0	0	NaN	NaN	NaN	none	none	NaN	0	0
416	1	225	1	none	1.5	NaN	blue	1	right	right	GLO	none	far	0	intact	none	none	0	0	NaN	NaN	NaN	none	none	NaN	0	0
416	1	226	1	none	1.5	NaN	yellow	0	left	left	GLO	none	close	0	intact	none	none	0	0	NaN	NaN	NaN	none	none	NaN	0	0
416	1	227	1	none	1.5	NaN	blue	0	up	up	GLO	none	far	0	intact	none	none	0	0	NaN	NaN	NaN	none	none	NaN	0	0
416	1	228	1	none	1.5	NaN	blue	0	up	up	GLO	none	far	0	intact	none	none	0	0	NaN	NaN	NaN	none	none	NaN	0	0
416	1	229	1	none	1.5	NaN	blue	0	up	up	GLO	none	close	0	intact	none	none	0	0	NaN	NaN	NaN	none	none	NaN	0	0
416	1	230	1	none	1.5	NaN	blue	1	down	down	GLO	none	far	0	intact	none	none	0	0	NaN	NaN	NaN	none	none	NaN	0	0
416	1	231	1	none	1.5	NaN	blue	0	up	up	GLO	none	close	0	intact	none	none	0	0	NaN	NaN	NaN	none	none	NaN	0	0
416	1	232	1	none	1.5	NaN	green	0	right	right	GLO	none	close	0	intact	none	none	0	0	NaN	NaN	NaN	none	none	NaN	0	0
416	1	233	1	none	1.5	NaN	red	0	down	down	GLO	none	close	0	intact	none	none	0	0	NaN	NaN	NaN	none	none	NaN	0	0
416	1	234	1	none	1.5	NaN	red	0	down	down	GLO	none	far	0	intact	none	none	0	0	NaN	NaN	NaN	none	none	NaN	0	0
416	1	235	1	none	1.5	NaN	green	0	right	right	GLO	none	close	0	intact	none	none	0	0	NaN	NaN	NaN	none	none	NaN	0	0
416	1	236	1	none	1.5	NaN	blue	1	right	right	GLO	none	far	0	intact	none	none	0	0	NaN	NaN	NaN	none	none	NaN	0	0
416	1	237	1	none	1.5	NaN	red	1	up	up	GLO	none	close	0	intact	none	none	0	0	NaN	NaN	NaN	none	none	NaN	0	0
416	1	238	1	none	1.5	NaN	blue	0	up	up	GLO	none	far	0	intact	none	none	0	0	NaN	NaN	NaN	none	none	NaN	0	0
416	1	239	1	none	1.5	NaN	blue	0	up	up	GLO	none	far	0	intact	none	none	0	0	NaN	NaN	NaN	none	none	NaN	0	0
416	1	240	1	none	1.5	NaN	red	0	down	down	GLO	none	far	0	intact	none	none	0	0	NaN	NaN	NaN	none	none	NaN	0	0
416	1	241	1	none	1.5	NaN	yellow	0	left	left	GLO	none	far	0	intact	none	none	0	0	NaN	NaN	NaN	none	none	NaN	0	0
416	1	242	1	none	1.5	NaN	blue	0	up	up	GLO	none	far	0	intact	none	none	0	0	NaN	NaN	NaN	none	none	NaN	0	0
416	1	243	1	none	1.5	NaN	yellow	1	down	down	GLO	none	far	0	intact	none	none	0	0	NaN	NaN	NaN	none	none	NaN	0	0
416	1	244	1	none	1.5	NaN	red	0	down	down	GLO	none	far	0	intact	none	none	0	0	NaN	NaN	NaN	none	none	NaN	0	0
416	1	245	1	none	1.5	NaN	green	0	right	right	GLO	none	far	0	intact	none	none	0	0	NaN	NaN	NaN	none	none	NaN	0	0
416	1	246	1	none	1.5	NaN	green	1	up	up	GLO	none	far	0	intact	none	none	0	0	NaN	NaN	NaN	none	none	NaN	0	0
416	1	247	1	none	1.5	NaN	green	1	down	down	GLO	none	close	0	intact	none	none	0	0	NaN	NaN	NaN	none	none	NaN	0	0
416	1	248	1	none	1.5	NaN	blue	0	up	up	GLO	none	far	0	intact	none	none	0	0	NaN	NaN	NaN	none	none	NaN	0	0
416	1	249	1	none	1.5	NaN	blue	1	left	left	GLO	none	far	0	intact	none	none	0	0	NaN	NaN	NaN	none	none	NaN	0	0
416	1	250	1	none	1.5	NaN	yellow	0	left	left	GLO	none	far	0	intact	none	none	0	0	NaN	NaN	NaN	none	none	NaN	0	0
416	1	251	1	none	1.5	NaN	blue	0	up	up	GLO	none	far	0	intact	none	none	0	0	NaN	NaN	NaN	none	none	NaN	0	0
416	1	252	1	none	1.5	NaN	red	0	down	down	GLO	none	close	0	intact	none	none	0	0	NaN	NaN	NaN	none	none	NaN	0	0
416	1	253	1	none	1.5	NaN	green	1	left	left	GLO	none	close	0	intact	none	none	0	0	NaN	NaN	NaN	none	none	NaN	0	0
416	1	254	1	none	1.5	NaN	green	0	right	right	GLO	none	far	0	intact	none	none	0	0	NaN	NaN	NaN	none	none	NaN	0	0
416	1	255	1	none	1.5	NaN	green	1	left	left	GLO	none	close	0	intact	none	none	0	0	NaN	NaN	NaN	none	none	NaN	0	0
416	1	256	1	none	1.5	NaN	red	1	right	right	GLO	none	close	0	intact	none	none	0	0	NaN	NaN	NaN	none	none	NaN	0	0
416	1	257	1	none	1.5	NaN	green	0	right	right	GLO	none	far	0	intact	none	none	0	0	NaN	NaN	NaN	none	none	NaN	0	0
416	1	258	1	none	1.5	NaN	red	1	left	left	GLO	none	close	0	intact	none	none	0	0	NaN	NaN	NaN	none	none	NaN	0	0
416	1	259	1	none	1.5	NaN	green	0	right	right	GLO	none	close	0	intact	none	none	0	0	NaN	NaN	NaN	none	none	NaN	0	0
416	1	260	1	none	1.5	NaN	blue	0	up	up	GLO	none	close	0	intact	none	none	0	0	NaN	NaN	NaN	none	none	NaN	0	0
416	1	261	1	none	1.5	NaN	green	0	right	right	GLO	none	close	0	intact	none	none	0	0	NaN	NaN	NaN	none	none	NaN	0	0
416	1	262	1	none	1.5	NaN	yellow	0	left	left	GLO	none	close	0	intact	none	none	0	0	NaN	NaN	NaN	none	none	NaN	0	0
416	1	263	1	none	1.5	NaN	yellow	1	down	down	GLO	none	close	0	intact	none	none	0	0	NaN	NaN	NaN	none	none	NaN	0	0
416	1	264	1	none	1.5	NaN	yellow	0	left	left	GLO	none	far	0	intact	none	none	0	0	NaN	NaN	NaN	none	none	NaN	0	0
416	1	265	1	none	1.5	NaN	green	0	right	right	GLO	none	far	0	intact	none	none	0	0	NaN	NaN	NaN	none	none	NaN	0	0
416	1	266	1	none	1.5	NaN	blue	0	up	up	GLO	none	far	0	intact	none	none	0	0	NaN	NaN	NaN	none	none	NaN	0	0
416	1	267	1	none	1.5	NaN	yellow	0	left	left	GLO	none	close	0	intact	none	none	0	0	NaN	NaN	NaN	none	none	NaN	0	0
416	1	268	1	none	1.5	NaN	blue	0	up	up	GLO	none	far	0	intact	none	none	0	0	NaN	NaN	NaN	none	none	NaN	0	0
416	1	269	1	none	1.5	NaN	green	1	down	down	GLO	none	far	0	intact	none	none	0	0	NaN	NaN	NaN	none	none	NaN	0	0
416	1	270	1	none	1.5	NaN	yellow	1	down	down	GLO	none	far	0	intact	none	none	0	0	NaN	NaN	NaN	none	none	NaN	0	0
416	1	271	1	none	1.5	NaN	red	1	up	up	GLO	none	far	0	intact	none	none	0	0	NaN	NaN	NaN	none	none	NaN	0	0
416	1	272	1	none	1.5	NaN	red	1	left	left	GLO	none	close	0	intact	none	none	0	0	NaN	NaN	NaN	none	none	NaN	0	0
416	1	273	1	none	1.5	NaN	blue	1	down	down	GLO	none	close	0	intact	none	none	0	0	NaN	NaN	NaN	none	none	NaN	0	0
416	1	274	1	none	1.5	NaN	yellow	0	left	left	GLO	none	far	0	intact	none	none	0	0	NaN	NaN	NaN	none	none	NaN	0	0
416	1	275	1	none	1.5	NaN	green	0	right	right	GLO	none	far	0	intact	none	none	0	0	NaN	NaN	NaN	none	none	NaN	0	0
416	1	276	1	none	1.5	NaN	green	0	right	right	GLO	none	far	0	intact	none	none	0	0	NaN	NaN	NaN	none	none	NaN	0	0
416	1	277	1	none	1.5	NaN	green	0	right	right	GLO	none	close	0	intact	none	none	0	0	NaN	NaN	NaN	none	none	NaN	0	0
416	2	1	1	auto	0.5	0.517347	yellow	1	up	up	GLO	left	far	1	intact	intact	e066eed1-ff30-4572-8429-cde771b0bc43_fps_avg_aud.mp4	1	0	1.39875	0	1	left	yellow	1	0	0
416	2	2	1	auto	0.5	0.511815	yellow	0	left	left	GLO	left	close	0	intact	none	none	0	0	0.649453	0	1	left	yellow	1	0	0
416	2	3	1	auto	0.5	0.514659	yellow	0	left	left	GLO	left	close	1	intact	intact	31c3bae2-faf4-4718-b53b-2e88624b3fa5_fps_avg_aud.mp4	1	0	0.545772	0	1	left	yellow	1	0	0
416	2	4	1	auto	0.5	0.512228	yellow	1	down	down	GLO	right	close	1	intact	intact	491c6b26-e39a-4650-ae90-8d66fc596b16_fps_avg_aud.mp4	1	0	0.449675	0	1	left	yellow	1	0	0
416	2	5	1	auto	0.5	0.509888	yellow	0	left	left	GLO	left	far	0	intact	none	none	0	0	0.377208	0	1	left	yellow	1	0	0
416	2	6	1	auto	0.5	0.513449	yellow	1	up	up	GLO	left	close	0	intact	none	none	0	0	0.382278	0	1	left	yellow	1	0	0
416	2	7	1	auto	0.5	0.513627	blue	0	up	up	GLO	left	close	1	intact	intact	Aug10_fps_avg_aud.mp4	1	0	1.62167	0	1	up	blue	1	0	0
416	2	8	1	auto	0.5	0.514904	blue	1	right	right	GLO	left	far	1	intact	intact	May15_fps_avg_aud.mp4	1	0	0.506998	0	1	up	blue	1	0	0
416	2	9	1	auto	0.5	0.514396	red	1	right	right	GLO	right	far	1	intact	intact	October_2015_fps_avg_aud.mp4	1	0	1.52549	0	1	down	red	1	0	0
416	2	10	1	auto	0.5	0.51472	yellow	0	left	left	GLO	left	close	1	intact	intact	9bd7a199-78f1-4f14-9fde-3a11c0ebd236_fps_avg_aud.mp4	1	62	0.748472	0.220203	1	left	yellow	1	0	0
416	2	11	1	auto	0.5	0.514491	yellow	1	right	right	GLO	right	close	0	intact	none	none	0	0	0.665321	0	1	left	yellow	1	0	0
416	2	12	1	auto	0.5	0.508295	green	1	left	left	GLO	right	close	0	intact	none	none	0	0	1.08225	0	1	right	green	1	0	0
416	2	13	1	auto	0.5	0.51361	green	0	right	right	GLO	left	close	1	intact	intact	August_2016_(1)_fps_avg_aud.mp4	1	51	1.08427	0.23028	1	right	green	1	0	0
416	2	14	1	auto	0.5	0.51313	green	1	up	up	GLO	right	far	0	intact	none	none	0	0	0.559955	0	1	right	green	1	0	0
416	2	15	1	auto	0.5	0.514558	blue	0	up	up	GLO	left	far	0	intact	none	none	0	0	0.882233	0	1	up	blue	1	0	0
416	2	16	1	auto	0.5	0.512327	red	0	down	down	GLO	left	far	1	intact	intact	Nmarch1222015_fps_avg_aud.mp4	1	0	0.682149	0	1	left	yellow	0	0	0
416	2	17	1	auto	0.5	0.51412	yellow	0	left	left	GLO	left	close	1	intact	intact	f83c406a-8912-4d12-a992-cd039ac123db_fps_avg_aud.mp4	1	0	0.669785	0	1	left	yellow	1	0	0
416	2	18	1	auto	0.5	0.514629	blue	1	down	down	GLO	right	far	1	intact	intact	Feb13_fps_avg_aud.mp4	1	0	1.08183	0	1	up	blue	1	0	0
416	2	19	1	auto	0.5	0.512488	blue	1	right	right	GLO	left	close	0	intact	none	none	0	0	1.16477	0	1	up	blue	1	0	0
416	2	20	1	auto	1.5	1.51634	blue	1	right	right	GLO	left	close	1	intact	intact	Jun20_fps_avg_aud.mp4	1	0	1.85198	0	1	down	red	0	0	0
416	2	21	1	auto	1.5	1.51277	red	1	up	up	GLO	right	close	1	intact	intact	79665cdb-61c8-40fb-9ffc-0682e57caf2f_fps_avg_aud.mp4	1	86	2.42058	0.329791	2	down	red	1	0	0
416	2	22	1	auto	1.5	1.51696	yellow	1	up	up	GLO	left	close	1	intact	intact	June_2016_(3)_fps_avg_aud.mp4	1	64	0.848359	0.333523	1	left	yellow	1	0	0
416	2	23	1	auto	1.5	1.51286	yellow	1	up	up	GLO	left	close	1	intact	intact	b03a76d5-df04-4f1c-a621-096b7428dc43_fps_avg_aud.mp4	1	0	0.634621	0	1	left	yellow	1	0	0
416	2	24	1	auto	1.5	1.51081	blue	0	up	up	GLO	left	far	1	intact	intact	Mar25_fps_avg_aud.mp4	1	0	1.18172	0	1	up	blue	1	0	0
416	2	25	1	auto	1.5	1.51362	blue	1	left	left	GLO	left	close	1	intact	intact	32a37ce7-a199-40eb-b5c5-b974866ffc28_fps_avg_aud.mp4	1	0	0.668259	0	1	up	blue	1	0	0
416	2	26	1	auto	1.5	1.51527	yellow	0	left	left	GLO	left	far	1	intact	intact	may_2015_fps_avg_aud.mp4	1	0	0.681139	0	1	left	yellow	1	0	0
416	2	27	1	auto	1.5	1.5154	green	0	right	right	GLO	right	far	0	intact	none	none	0	0	1.2982	0	1	right	green	1	0	0
416	2	28	1	auto	1.5	1.51278	green	1	down	down	GLO	left	close	0	intact	none	none	0	0	0.84628	0	1	right	green	1	0	0
416	2	29	1	auto	1.5	1.5113	yellow	0	left	left	GLO	right	far	0	intact	none	none	0	0	0.872697	0	1	left	yellow	1	0	0
416	2	30	1	auto	1.5	NaN	green	0	right	right	GLO	none	far	0	intact	none	none	0	0	NaN	NaN	NaN	none	none	NaN	0	0
416	2	31	1	auto	1.5	NaN	red	0	down	down	GLO	none	close	0	intact	none	none	0	0	NaN	NaN	NaN	none	none	NaN	0	0
416	2	32	1	auto	1.5	NaN	red	0	down	down	GLO	none	far	1	intact	intact	aaed05cf-98e5-42ad-91f7-ba579fcda996_fps_avg_aud.mp4	0	0	NaN	NaN	NaN	none	none	NaN	0	0
416	2	33	1	auto	1.5	NaN	red	0	down	down	GLO	none	close	1	intact	intact	e3992607-d25b-430c-bd18-12cb4a6d1b28_fps_avg_aud.mp4	0	0	NaN	NaN	NaN	none	none	NaN	0	0
416	2	34	1	auto	1.5	NaN	yellow	0	left	left	GLO	none	far	1	intact	intact	Jan8_fps_avg_aud.mp4	0	0	NaN	NaN	NaN	none	none	NaN	0	0
416	2	35	1	auto	1.5	NaN	yellow	0	left	left	GLO	none	close	0	intact	none	none	0	0	NaN	NaN	NaN	none	none	NaN	0	0
416	2	36	1	auto	1.5	NaN	yellow	1	up	up	GLO	none	far	1	intact	intact	june_18_2015_fps_avg_aud.mp4	0	0	NaN	NaN	NaN	none	none	NaN	0	0
416	2	37	1	auto	1.5	NaN	green	1	up	up	GLO	none	close	1	intact	intact	8b38af47-0b70-4682-ac0e-c7a415e91156_fps_avg_aud.mp4	0	0	NaN	NaN	NaN	none	none	NaN	0	0
416	2	38	1	auto	1.5	NaN	red	1	right	right	GLO	none	close	0	intact	none	none	0	0	NaN	NaN	NaN	none	none	NaN	0	0
416	2	39	1	auto	1.5	NaN	yellow	0	left	left	GLO	none	close	1	intact	intact	520ef496-2bf3-4f3e-8a54-00e0428b126c_fps_avg_aud.mp4	0	0	NaN	NaN	NaN	none	none	NaN	0	0
416	2	40	1	auto	1.5	NaN	green	1	up	up	GLO	none	close	0	intact	none	none	0	0	NaN	NaN	NaN	none	none	NaN	0	0
416	2	41	1	auto	1.5	NaN	blue	1	right	right	GLO	none	far	0	intact	none	none	0	0	NaN	NaN	NaN	none	none	NaN	0	0
416	2	42	1	auto	1.5	NaN	green	0	right	right	GLO	none	far	1	intact	intact	5b8d6efa-e1ab-4dc5-b720-51d467e90859_fps_avg_aud.mp4	0	0	NaN	NaN	NaN	none	none	NaN	0	0
416	2	43	1	auto	1.5	NaN	yellow	1	up	up	GLO	none	close	1	intact	intact	e8c6c3f9-933c-4d98-9013-684e2acc2e1e_fps_avg_aud.mp4	0	0	NaN	NaN	NaN	none	none	NaN	0	0
416	2	44	1	auto	1.5	NaN	green	0	right	right	GLO	none	far	1	intact	intact	October_20_2016_fps_avg_aud.mp4	0	0	NaN	NaN	NaN	none	none	NaN	0	0
416	2	45	1	auto	1.5	NaN	green	1	up	up	GLO	none	close	1	intact	intact	8b186ca3-65a3-4740-8611-404063ae0ec7_fps_avg_aud.mp4	0	0	NaN	NaN	NaN	none	none	NaN	0	0
416	2	46	1	auto	1.5	NaN	green	0	right	right	GLO	none	close	1	intact	intact	Nov9_fps_avg_aud.mp4	0	0	NaN	NaN	NaN	none	none	NaN	0	0
416	2	47	1	auto	1.5	NaN	green	0	right	right	GLO	none	far	1	intact	intact	1bfb8d40-5675-4acc-87b4-a7f11b6242ea_fps_avg_aud.mp4	0	0	NaN	NaN	NaN	none	none	NaN	0	0
416	2	48	1	auto	1.5	NaN	green	1	left	left	GLO	none	close	1	intact	intact	cfead01b-2f72-4131-8069-3f2052f352e3_fps_avg_aud.mp4	0	0	NaN	NaN	NaN	none	none	NaN	0	0
416	2	49	1	auto	1.5	NaN	green	1	left	left	GLO	none	close	0	intact	none	none	0	0	NaN	NaN	NaN	none	none	NaN	0	0
416	2	50	1	auto	1.5	NaN	blue	1	down	down	GLO	none	far	1	intact	intact	58fa2b05-06d6-4325-b14b-27b0a9645ea5_fps_avg_aud.mp4	0	0	NaN	NaN	NaN	none	none	NaN	0	0
416	2	51	1	auto	1.5	NaN	yellow	0	left	left	GLO	none	close	1	intact	intact	43373659-2842-4fad-950a-4472afef2f38_fps_avg_aud.mp4	0	0	NaN	NaN	NaN	none	none	NaN	0	0
416	2	52	1	auto	1.5	NaN	yellow	1	down	down	GLO	none	far	1	intact	intact	856001bb-aa8d-41ae-ad3d-fd9ff39c28c0_fps_avg_aud.mp4	0	0	NaN	NaN	NaN	none	none	NaN	0	0
416	2	53	1	auto	1.5	NaN	yellow	0	left	left	GLO	none	far	1	intact	intact	November_14_2016_fps_avg_aud.mp4	0	0	NaN	NaN	NaN	none	none	NaN	0	0
416	2	54	1	auto	1.5	NaN	green	0	right	right	GLO	none	close	1	intact	intact	fb42eb92-ecec-41cf-8ef3-e4a7b0a219f1_fps_avg_aud.mp4	0	0	NaN	NaN	NaN	none	none	NaN	0	0
416	2	55	1	auto	1.5	NaN	blue	0	up	up	GLO	none	far	0	intact	none	none	0	0	NaN	NaN	NaN	none	none	NaN	0	0
416	2	56	1	auto	1.5	NaN	green	1	down	down	GLO	none	far	1	intact	intact	Otober_11_2016_fps_avg_aud.mp4	0	0	NaN	NaN	NaN	none	none	NaN	0	0
416	2	57	1	auto	1.5	NaN	red	0	down	down	GLO	none	close	0	intact	none	none	0	0	NaN	NaN	NaN	none	none	NaN	0	0
416	2	58	1	auto	1.5	NaN	green	1	up	up	GLO	none	close	1	intact	intact	491f864e-d652-4cca-82ba-d023f3192016_fps_avg_aud.mp4	0	0	NaN	NaN	NaN	none	none	NaN	0	0
416	2	59	1	auto	1.5	NaN	red	1	left	left	GLO	none	far	0	intact	none	none	0	0	NaN	NaN	NaN	none	none	NaN	0	0
416	2	60	1	auto	1.5	NaN	green	1	up	up	GLO	none	close	1	intact	intact	May_18_2016_fps_avg_aud.mp4	0	0	NaN	NaN	NaN	none	none	NaN	0	0
416	2	61	1	auto	1.5	NaN	red	0	down	down	GLO	none	far	1	intact	intact	149f1481-9792-4892-beba-4137601f26a6_fps_avg_aud.mp4	0	0	NaN	NaN	NaN	none	none	NaN	0	0
416	2	62	1	auto	1.5	NaN	green	0	right	right	GLO	none	far	1	intact	intact	Nov6_fps_avg_aud.mp4	0	0	NaN	NaN	NaN	none	none	NaN	0	0
416	2	63	1	auto	1.5	NaN	green	0	right	right	GLO	none	close	0	intact	none	none	0	0	NaN	NaN	NaN	none	none	NaN	0	0
416	2	64	1	auto	1.5	NaN	blue	1	down	down	GLO	none	close	1	intact	intact	Feb8_fps_avg_aud.mp4	0	0	NaN	NaN	NaN	none	none	NaN	0	0
416	2	65	1	auto	1.5	NaN	blue	0	up	up	GLO	none	far	0	intact	none	none	0	0	NaN	NaN	NaN	none	none	NaN	0	0
416	2	66	1	auto	1.5	NaN	blue	1	right	right	GLO	none	far	1	intact	intact	Jun1_fps_avg_aud.mp4	0	0	NaN	NaN	NaN	none	none	NaN	0	0
416	2	67	1	auto	1.5	NaN	blue	1	right	right	GLO	none	close	0	intact	none	none	0	0	NaN	NaN	NaN	none	none	NaN	0	0
416	2	68	1	auto	1.5	NaN	yellow	1	up	up	GLO	none	far	0	intact	none	none	0	0	NaN	NaN	NaN	none	none	NaN	0	0
416	2	69	1	auto	1.5	NaN	green	0	right	right	GLO	none	close	1	intact	intact	3787d5d7-bc65-4720-b93c-344c8ca85f75_fps_avg_aud.mp4	0	0	NaN	NaN	NaN	none	none	NaN	0	0
416	2	70	1	auto	1.5	NaN	green	0	right	right	GLO	none	close	1	intact	intact	86e20a10-46be-4f52-b05b-06877412cf60_fps_avg_aud.mp4	0	0	NaN	NaN	NaN	none	none	NaN	0	0
416	2	71	1	auto	1.5	NaN	blue	0	up	up	GLO	none	close	1	intact	intact	September_2016_(2)_fps_avg_aud.mp4	0	0	NaN	NaN	NaN	none	none	NaN	0	0
416	2	72	1	auto	1.5	NaN	red	0	down	down	GLO	none	close	1	intact	intact	July25_fps_avg_aud.mp4	0	0	NaN	NaN	NaN	none	none	NaN	0	0
416	2	73	1	auto	1.5	NaN	blue	0	up	up	GLO	none	close	0	intact	none	none	0	0	NaN	NaN	NaN	none	none	NaN	0	0
416	2	74	1	auto	1.5	NaN	blue	1	down	down	GLO	none	close	1	intact	intact	Dec31_fps_avg_aud.mp4	0	0	NaN	NaN	NaN	none	none	NaN	0	0
416	2	75	1	auto	1.5	NaN	red	0	down	down	GLO	none	close	0	intact	none	none	0	0	NaN	NaN	NaN	none	none	NaN	0	0
416	2	76	1	auto	1.5	NaN	blue	0	up	up	GLO	none	close	0	intact	none	none	0	0	NaN	NaN	NaN	none	none	NaN	0	0
416	2	77	1	auto	1.5	NaN	yellow	0	left	left	GLO	none	far	1	intact	intact	Mar20_fps_avg_aud.mp4	0	0	NaN	NaN	NaN	none	none	NaN	0	0
416	2	78	1	auto	1.5	NaN	green	0	right	right	GLO	none	close	1	intact	intact	July_2015_(1)_fps_avg_aud.mp4	0	0	NaN	NaN	NaN	none	none	NaN	0	0
416	2	79	1	auto	1.5	NaN	green	0	right	right	GLO	none	far	1	intact	intact	October_8_2016_fps_avg_aud.mp4	0	0	NaN	NaN	NaN	none	none	NaN	0	0
416	2	80	1	auto	1.5	NaN	green	1	up	up	GLO	none	far	1	intact	intact	2ee32cdc-eb1b-4b14-b0d7-fb25b7ed46e3_fps_avg_aud.mp4	0	0	NaN	NaN	NaN	none	none	NaN	0	0
416	2	81	1	auto	1.5	NaN	blue	0	up	up	GLO	none	close	1	intact	intact	108f257a-1892-40f5-b9e3-6eb0557bc08c(1)_fps_avg_aud.mp4	0	0	NaN	NaN	NaN	none	none	NaN	0	0
416	2	82	1	auto	1.5	NaN	yellow	1	up	up	GLO	none	far	1	intact	intact	October_4_2015_fps_avg_aud.mp4	0	0	NaN	NaN	NaN	none	none	NaN	0	0
416	2	83	1	auto	1.5	NaN	green	0	right	right	GLO	none	close	1	intact	intact	Apr30_fps_avg_aud.mp4	0	0	NaN	NaN	NaN	none	none	NaN	0	0
416	2	84	1	auto	1.5	NaN	green	1	left	left	GLO	none	far	1	intact	intact	Apr1_fps_avg_aud.mp4	0	0	NaN	NaN	NaN	none	none	NaN	0	0
416	2	85	1	auto	1.5	NaN	blue	1	left	left	GLO	none	close	0	intact	none	none	0	0	NaN	NaN	NaN	none	none	NaN	0	0
416	2	86	1	auto	1.5	NaN	green	1	down	down	GLO	none	far	1	intact	intact	a066c606-67e2-4c5d-b13d-471a21a18633_fps_avg_aud.mp4	0	0	NaN	NaN	NaN	none	none	NaN	0	0
416	2	87	1	auto	1.5	NaN	blue	0	up	up	GLO	none	close	1	intact	intact	August_3_2016_fps_avg_aud.mp4	0	0	NaN	NaN	NaN	none	none	NaN	0	0
416	2	88	1	auto	1.5	NaN	red	0	down	down	GLO	none	close	0	intact	none	none	0	0	NaN	NaN	NaN	none	none	NaN	0	0
416	2	89	1	auto	1.5	NaN	yellow	1	right	right	GLO	none	close	0	intact	none	none	0	0	NaN	NaN	NaN	none	none	NaN	0	0
416	2	90	1	auto	1.5	NaN	blue	1	down	down	GLO	none	close	1	intact	intact	Sep7_fps_avg_aud.mp4	0	0	NaN	NaN	NaN	none	none	NaN	0	0
416	2	91	1	auto	1.5	NaN	yellow	1	up	up	GLO	none	far	1	intact	intact	023396f6-bdb5-478d-a725-e32d4f6b7be9_fps_avg_aud.mp4	0	0	NaN	NaN	NaN	none	none	NaN	0	0
416	2	92	1	auto	1.5	NaN	yellow	0	left	left	GLO	none	close	0	intact	none	none	0	0	NaN	NaN	NaN	none	none	NaN	0	0
416	2	93	1	auto	1.5	NaN	red	1	left	left	GLO	none	far	1	intact	intact	Jan11_fps_avg_aud.mp4	0	0	NaN	NaN	NaN	none	none	NaN	0	0
416	3	1	1	self	0.5	0.516439	green	0	right	right	GLO	left	far	1	intact	intact	6189325b-e315-4417-8d81-a8cae54059df_fps_avg_aud.mp4	0	0	0.964479	0	1	right	green	1	0	0
416	3	2	1	self	0.5	0.510804	green	0	right	right	GLO	right	close	1	intact	intact	Nmarch122015_fps_avg_aud.mp4	0	0	0.481229	0	1	right	green	1	0	0
416	3	3	1	self	0.5	0.513895	yellow	1	right	right	GLO	left	close	1	intact	intact	54741aa9-fdb7-4546-b60b-078b0914ddd1_fps_avg_aud.mp4	0	0	0.665252	0	1	left	yellow	1	0	0
416	3	4	1	self	0.5	0.514289	blue	1	right	right	GLO	left	close	1	intact	intact	Nov25_fps_avg_aud.mp4	0	0	0.548846	0	1	up	blue	1	0	0
416	3	5	1	self	0.5	0.509439	green	1	left	left	GLO	left	close	1	intact	intact	8b38af47-0b70-4682-ac0e-c7a415e91156_fps_avg_aud.mp4	0	0	0.848226	0	1	right	green	1	0	0
416	3	6	1	self	0.5	0.514299	green	0	right	right	GLO	left	close	1	intact	intact	0fb53cd4-6c5a-4fee-a2f6-e37a34d597fc_fps_avg_aud.mp4	0	0	0.448967	0	1	right	green	1	0	0
416	3	7	1	self	0.5	0.510516	green	0	right	right	GLO	right	far	1	intact	intact	June_2016_(4)_fps_avg_aud.mp4	0	0	0.548052	0	1	right	green	1	0	0
416	3	8	1	self	0.5	0.512774	yellow	0	left	left	GLO	right	far	1	intact	intact	8e8c5e28-7fba-491b-88f9-891e8e26ddbd_fps_avg_aud.mp4	0	0	0.628014	0	1	left	yellow	1	0	0
416	3	9	1	self	0.5	0.514401	yellow	1	up	up	GLO	right	far	1	intact	intact	Dec30_fps_avg_aud.mp4	0	0	0.765172	0	1	left	yellow	1	0	0
416	3	10	1	self	0.5	0.514001	green	0	right	right	GLO	left	close	1	intact	intact	483a899a-71a0-49cf-b2ba-f13374d6b0a8_fps_avg_aud.mp4	0	0	0.664501	0	1	right	green	1	0	0
416	3	11	1	self	0.5	0.510579	blue	1	down	down	GLO	left	close	1	intact	intact	October_8_2016_fps_avg_aud.mp4	0	0	0.532074	0	1	up	blue	1	0	0
416	3	12	1	self	0.5	0.512569	yellow	1	up	up	GLO	right	far	1	intact	intact	fc42fffc-beb2-426f-85f8-fe9f11671486_fps_avg_aud.mp4	0	0	0.648848	0	1	left	yellow	1	0	0
416	3	13	1	self	0.5	0.510248	red	0	down	down	GLO	right	far	1	intact	intact	October_25_2016_fps_avg_aud.mp4	0	0	0.897719	0	1	down	red	1	0	0
416	3	14	1	self	0.5	0.512245	yellow	1	up	up	GLO	left	close	1	intact	intact	May18_fps_avg_aud.mp4	0	0	0.630227	0	1	left	yellow	1	0	0
416	3	15	1	self	0.5	0.511635	blue	1	right	right	GLO	left	close	1	intact	intact	Mar19_fps_avg_aud.mp4	0	0	0.765428	0	1	up	blue	1	0	0
416	3	16	1	self	0.5	0.513429	blue	1	left	left	GLO	left	close	1	intact	intact	Dec11_fps_avg_aud.mp4	0	0	0.631851	0	1	up	blue	1	0	0
416	3	17	1	self	0.5	0.514944	yellow	1	up	up	GLO	right	far	1	intact	intact	Feb14_fps_avg_aud.mp4	0	0	0.596704	0	1	left	yellow	1	0	0
416	3	18	1	self	0.5	0.510283	blue	0	up	up	GLO	left	far	1	intact	intact	359d82dd-3d4c-4029-a89b-66422745c056_fps_avg_aud.mp4	0	0	0.832928	0	1	up	blue	1	0	0
416	3	19	1	self	0.5	0.514777	yellow	1	right	right	GLO	left	far	1	intact	intact	beb38bd6-976e-468f-9f23-b6b41f12ce11_fps_avg_aud.mp4	0	0	0.71481	0	1	left	yellow	1	0	0
416	3	20	1	self	0.5	0.510658	green	0	right	right	GLO	left	far	1	intact	intact	ab1e6c91-a115-4b2d-8609-b4e2233254d6_fps_avg_aud.mp4	0	0	1.11529	0	1	right	green	1	0	0
416	3	21	1	self	0.5	0.514249	yellow	0	left	left	GLO	right	far	1	intact	intact	November_2015_(2)_fps_avg_aud.mp4	0	0	0.56474	0	1	left	yellow	1	0	0
416	3	22	1	self	1.5	1.51589	blue	0	up	up	GLO	left	far	1	intact	intact	030a135d-605a-42ea-902a-469aeded471a_fps_avg_aud.mp4	0	0	1.49769	0	1	up	blue	1	0	0
416	3	23	1	self	1.5	1.51018	green	0	right	right	GLO	right	close	1	intact	intact	b5bcd3a2-267e-4413-b730-c3121b8457ab_fps_avg_aud.mp4	0	0	1.28211	0	1	right	green	1	0	0
416	3	24	1	self	1.5	1.50969	blue	1	right	right	GLO	left	close	1	intact	intact	14b4b9c3-9408-4ec8-bd84-8e92a4405645_fps_avg_aud.mp4	0	0	0.90937	0	1	up	blue	1	0	0
416	3	25	1	self	1.5	1.5117	yellow	1	right	right	GLO	right	far	1	intact	intact	April_2015_(1)_fps_avg_aud.mp4	0	0	0.705679	0	1	left	yellow	1	0	0
416	3	26	1	self	1.5	1.51172	yellow	0	left	left	GLO	left	far	1	intact	intact	73d0e54a-1b4c-4f00-a562-b71360349bdf_fps_avg_aud.mp4	0	0	0.89634	0	1	left	yellow	1	0	0
416	3	27	1	self	1.5	1.5107	red	0	down	down	GLO	left	close	1	intact	intact	Feb17_fps_avg_aud.mp4	0	0	1.24935	0	1	down	red	1	0	0
416	3	28	1	self	1.5	1.51113	green	1	left	left	GLO	right	far	1	intact	intact	Nov10_fps_avg_aud.mp4	0	0	1.38062	0	1	right	green	1	0	0
416	3	29	1	self	1.5	1.51139	green	1	down	down	GLO	left	close	1	intact	intact	5b8d6efa-e1ab-4dc5-b720-51d467e90859_fps_avg_aud.mp4	0	0	0.629757	0	1	right	green	1	0	0
416	3	30	1	self	1.5	1.51263	yellow	0	left	left	GLO	left	far	1	intact	intact	11bc07f6-cbc9-48b9-a240-792e373d6a2a_fps_avg_aud.mp4	0	0	0.697874	0	1	left	yellow	1	0	0
416	3	31	1	self	1.5	1.51327	green	1	up	up	GLO	right	far	1	intact	intact	f641fc6b-8728-47c9-b90c-11b1af7f196e_fps_avg_aud.mp4	0	0	1.37876	0	1	right	green	1	0	0
416	3	32	1	self	1.5	1.51398	yellow	1	down	down	GLO	right	far	1	intact	intact	c6481c95-a5c1-4e4c-bc78-4d2184182dd4_fps_avg_aud.mp4	0	0	1.08083	0	1	left	yellow	1	0	0
416	3	33	1	self	1.5	NaN	blue	1	down	down	GLO	none	far	1	intact	intact	Aug30_fps_avg_aud.mp4	0	0	NaN	NaN	NaN	none	none	NaN	0	0
416	3	34	1	self	1.5	NaN	red	0	down	down	GLO	none	far	1	intact	intact	Mar14_fps_avg_aud.mp4	0	0	NaN	NaN	NaN	none	none	NaN	0	0
416	3	35	1	self	1.5	NaN	blue	1	left	left	GLO	none	far	1	intact	intact	745865b0-d7b3-440f-840d-03f3a3ef51b1_fps_avg_aud.mp4	0	0	NaN	NaN	NaN	none	none	NaN	0	0
416	3	36	1	self	1.5	NaN	blue	0	up	up	GLO	none	far	1	intact	intact	240bdf76-9a30-49ea-9534-079281412955_fps_avg_aud.mp4	0	0	NaN	NaN	NaN	none	none	NaN	0	0
416	3	37	1	self	1.5	NaN	blue	0	up	up	GLO	none	close	1	intact	intact	Jan8_fps_avg_aud.mp4	0	0	NaN	NaN	NaN	none	none	NaN	0	0
416	3	38	1	self	1.5	NaN	yellow	1	up	up	GLO	none	close	1	intact	intact	May27_fps_avg_aud.mp4	0	0	NaN	NaN	NaN	none	none	NaN	0	0
416	3	39	1	self	1.5	NaN	green	1	up	up	GLO	none	close	1	intact	intact	1ad967f4-1728-4eb7-88a5-9d6ad488c3b4_fps_avg_aud.mp4	0	0	NaN	NaN	NaN	none	none	NaN	0	0
416	3	40	1	self	1.5	NaN	red	1	left	left	GLO	none	far	1	intact	intact	a9843691-e4cb-4c12-aa70-47f2024c5698_fps_avg_aud.mp4	0	0	NaN	NaN	NaN	none	none	NaN	0	0
416	3	41	1	self	1.5	NaN	blue	1	down	down	GLO	none	far	1	intact	intact	f08bb9b7-0409-482c-9084-de15481ab2b3_fps_avg_aud.mp4	0	0	NaN	NaN	NaN	none	none	NaN	0	0
416	3	42	1	self	1.5	NaN	green	0	right	right	GLO	none	far	1	intact	intact	179d3911-04f4-4680-91c3-2515ed1f3cc4_fps_avg_aud.mp4	0	0	NaN	NaN	NaN	none	none	NaN	0	0
416	3	43	1	self	1.5	NaN	red	0	down	down	GLO	none	far	1	intact	intact	bde7c25a-0ad2-4261-821f-9cae1d4d4033_fps_avg_aud.mp4	0	0	NaN	NaN	NaN	none	none	NaN	0	0
416	3	44	1	self	1.5	NaN	green	1	left	left	GLO	none	close	1	intact	intact	Dec13_fps_avg_aud.mp4	0	0	NaN	NaN	NaN	none	none	NaN	0	0
416	3	45	1	self	1.5	NaN	green	0	right	right	GLO	none	far	1	intact	intact	cc0b25a9-3d1b-4c67-b1c5-5f27d60e59cb_fps_avg_aud.mp4	0	0	NaN	NaN	NaN	none	none	NaN	0	0
416	3	46	1	self	1.5	NaN	green	1	up	up	GLO	none	close	1	intact	intact	January_2016_(1)_fps_avg_aud.mp4	0	0	NaN	NaN	NaN	none	none	NaN	0	0
416	3	47	1	self	1.5	NaN	red	0	down	down	GLO	none	far	1	intact	intact	October_10_2016_(1)_fps_avg_aud.mp4	0	0	NaN	NaN	NaN	none	none	NaN	0	0
416	3	48	1	self	1.5	NaN	green	0	right	right	GLO	none	far	1	intact	intact	Apr4_fps_avg_aud.mp4	0	0	NaN	NaN	NaN	none	none	NaN	0	0
416	3	49	1	self	1.5	NaN	yellow	1	down	down	GLO	none	close	1	intact	intact	July3_fps_avg_aud.mp4	0	0	NaN	NaN	NaN	none	none	NaN	0	0
416	3	50	1	self	1.5	NaN	yellow	0	left	left	GLO	none	far	1	intact	intact	ac670a32-9758-4aa8-b876-775cfe4f2e47_fps_avg_aud.mp4	0	0	NaN	NaN	NaN	none	none	NaN	0	0
416	3	51	1	self	1.5	NaN	blue	1	left	left	GLO	none	far	1	intact	intact	d0082a79-d6fc-4855-80df-f443f4a14e37_fps_avg_aud.mp4	0	0	NaN	NaN	NaN	none	none	NaN	0	0
416	3	52	1	self	1.5	NaN	red	1	up	up	GLO	none	far	1	intact	intact	fa34c2a5-d3e2-4d1e-914f-e40c92a49120_fps_avg_aud.mp4	0	0	NaN	NaN	NaN	none	none	NaN	0	0
416	3	53	1	self	1.5	NaN	green	1	up	up	GLO	none	far	1	intact	intact	af8a1933-c829-43c1-8393-4abd55081a1d_fps_avg_aud.mp4	0	0	NaN	NaN	NaN	none	none	NaN	0	0
416	3	54	1	self	1.5	NaN	red	0	down	down	GLO	none	close	1	intact	intact	2925915c-d027-4d48-be00-616870d6d158_fps_avg_aud.mp4	0	0	NaN	NaN	NaN	none	none	NaN	0	0
416	3	55	1	self	1.5	NaN	blue	0	up	up	GLO	none	far	1	intact	intact	17bc9968-edac-4234-b3eb-c8487676c442_fps_avg_aud.mp4	0	0	NaN	NaN	NaN	none	none	NaN	0	0
416	3	56	1	self	1.5	NaN	red	0	down	down	GLO	none	close	1	intact	intact	63b4d034-af4a-4a03-8aa0-83818020367c_fps_avg_aud.mp4	0	0	NaN	NaN	NaN	none	none	NaN	0	0
416	3	57	1	self	1.5	NaN	red	0	down	down	GLO	none	close	1	intact	intact	3787d5d7-bc65-4720-b93c-344c8ca85f75_fps_avg_aud.mp4	0	0	NaN	NaN	NaN	none	none	NaN	0	0
416	3	58	1	self	1.5	NaN	green	0	right	right	GLO	none	far	1	intact	intact	Aug1_fps_avg_aud.mp4	0	0	NaN	NaN	NaN	none	none	NaN	0	0
416	3	59	1	self	1.5	NaN	yellow	0	left	left	GLO	none	close	1	intact	intact	86e20a10-46be-4f52-b05b-06877412cf60_fps_avg_aud.mp4	0	0	NaN	NaN	NaN	none	none	NaN	0	0
416	3	60	1	self	1.5	NaN	green	0	right	right	GLO	none	close	1	intact	intact	ae961612-f052-4542-a69c-195487c48d51_fps_avg_aud.mp4	0	0	NaN	NaN	NaN	none	none	NaN	0	0
416	3	61	1	self	1.5	NaN	green	1	down	down	GLO	none	far	1	intact	intact	a707cf2a-2929-40a6-a19c-21d84be0dc1e_fps_avg_aud.mp4	0	0	NaN	NaN	NaN	none	none	NaN	0	0
416	3	62	1	self	1.5	NaN	red	0	down	down	GLO	none	close	1	intact	intact	Dec23_fps_avg_aud.mp4	0	0	NaN	NaN	NaN	none	none	NaN	0	0
416	3	63	1	self	1.5	NaN	red	0	down	down	GLO	none	close	1	intact	intact	Apr1_fps_avg_aud.mp4	0	0	NaN	NaN	NaN	none	none	NaN	0	0
416	3	64	1	self	1.5	NaN	yellow	0	left	left	GLO	none	close	1	intact	intact	1b336470-7a10-4cc7-aee4-3a5e6e6e551e_fps_avg_aud.mp4	0	0	NaN	NaN	NaN	none	none	NaN	0	0
416	3	65	1	self	1.5	NaN	blue	0	up	up	GLO	none	close	1	intact	intact	Mar8_fps_avg_aud.mp4	0	0	NaN	NaN	NaN	none	none	NaN	0	0
416	3	66	1	self	1.5	NaN	red	1	up	up	GLO	none	far	1	intact	intact	January_2016_(3)_fps_avg_aud.mp4	0	0	NaN	NaN	NaN	none	none	NaN	0	0
416	3	67	1	self	1.5	NaN	green	1	down	down	GLO	none	close	1	intact	intact	Sep30_fps_avg_aud.mp4	0	0	NaN	NaN	NaN	none	none	NaN	0	0
416	3	68	1	self	1.5	NaN	blue	0	up	up	GLO	none	close	1	intact	intact	Jun8_fps_avg_aud.mp4	0	0	NaN	NaN	NaN	none	none	NaN	0	0
416	3	69	1	self	1.5	NaN	blue	1	right	right	GLO	none	far	1	intact	intact	b23c9ea6-adb6-492c-965f-16af3f7801e9_fps_avg_aud.mp4	0	0	NaN	NaN	NaN	none	none	NaN	0	0
416	3	70	1	self	1.5	NaN	green	0	right	right	GLO	none	close	1	intact	intact	5022b285-2c2f-4e4f-824d-5e45be82c1a3_fps_avg_aud.mp4	0	0	NaN	NaN	NaN	none	none	NaN	0	0
416	3	71	1	self	1.5	NaN	blue	0	up	up	GLO	none	close	1	intact	intact	ea8c6916-8b70-4539-be72-29487b43dc07_fps_avg_aud.mp4	0	0	NaN	NaN	NaN	none	none	NaN	0	0
416	3	72	1	self	1.5	NaN	blue	1	down	down	GLO	none	far	1	intact	intact	e1d4becd-1ca6-41b0-82ab-58d50a368204_fps_avg_aud.mp4	0	0	NaN	NaN	NaN	none	none	NaN	0	0
416	3	73	1	self	1.5	NaN	blue	1	down	down	GLO	none	far	1	intact	intact	91a36f37-93be-4754-9ddb-f173f29574e1_fps_avg_aud.mp4	0	0	NaN	NaN	NaN	none	none	NaN	0	0
416	3	74	1	self	1.5	NaN	green	0	right	right	GLO	none	far	1	intact	intact	69d4f1be-9d50-4cd5-8475-2fb4a62d07e2_fps_avg_aud.mp4	0	0	NaN	NaN	NaN	none	none	NaN	0	0
416	3	75	1	self	1.5	NaN	blue	1	down	down	GLO	none	close	1	intact	intact	f22090a0-ec04-4dfd-99ca-7810b9650ec8_fps_avg_aud.mp4	0	0	NaN	NaN	NaN	none	none	NaN	0	0
416	3	76	1	self	1.5	NaN	yellow	1	down	down	GLO	none	close	1	intact	intact	7b9f55fa-3ddf-4c84-bb13-2413d53cbf75_fps_avg_aud.mp4	0	0	NaN	NaN	NaN	none	none	NaN	0	0
416	3	77	1	self	1.5	NaN	green	1	down	down	GLO	none	far	1	intact	intact	7ed41b90-fac5-42bc-94a9-a4d7f021d578_fps_avg_aud.mp4	0	0	NaN	NaN	NaN	none	none	NaN	0	0
416	3	78	1	self	1.5	NaN	yellow	0	left	left	GLO	none	far	1	intact	intact	ed9842b1-ccb5-4e6e-8fcb-d81eb3d6f297_fps_avg_aud.mp4	0	0	NaN	NaN	NaN	none	none	NaN	0	0
416	3	79	1	self	1.5	NaN	yellow	0	left	left	GLO	none	close	1	intact	intact	2ee32cdc-eb1b-4b14-b0d7-fb25b7ed46e3_fps_avg_aud.mp4	0	0	NaN	NaN	NaN	none	none	NaN	0	0
416	3	80	1	self	1.5	NaN	green	1	up	up	GLO	none	far	1	intact	intact	54a93c98-7413-4e40-aca3-12bf7a6220c7_fps_avg_aud.mp4	0	0	NaN	NaN	NaN	none	none	NaN	0	0
416	3	81	1	self	1.5	NaN	yellow	1	up	up	GLO	none	far	1	intact	intact	May8_fps_avg_aud.mp4	0	0	NaN	NaN	NaN	none	none	NaN	0	0
416	3	82	1	self	1.5	NaN	yellow	1	down	down	GLO	none	close	1	intact	intact	jan31_2016_fps_avg_aud.mp4	0	0	NaN	NaN	NaN	none	none	NaN	0	0
416	3	83	1	self	1.5	NaN	red	1	left	left	GLO	none	close	1	intact	intact	September_2016_(3)_fps_avg_aud.mp4	0	0	NaN	NaN	NaN	none	none	NaN	0	0
416	3	84	1	self	1.5	NaN	blue	0	up	up	GLO	none	close	1	intact	intact	334b06e5-5a99-4c23-b82f-0b02017f9d2e_fps_avg_aud.mp4	0	0	NaN	NaN	NaN	none	none	NaN	0	0
416	3	85	1	self	1.5	NaN	yellow	1	down	down	GLO	none	close	1	intact	intact	bfb38b58-a56a-427a-a233-3b6663beed7c_fps_avg_aud.mp4	0	0	NaN	NaN	NaN	none	none	NaN	0	0
416	3	86	1	self	1.5	NaN	blue	1	right	right	GLO	none	close	1	intact	intact	January_2016_(2)_fps_avg_aud.mp4	0	0	NaN	NaN	NaN	none	none	NaN	0	0
416	3	87	1	self	1.5	NaN	blue	0	up	up	GLO	none	close	1	intact	intact	Aug18_fps_avg_aud.mp4	0	0	NaN	NaN	NaN	none	none	NaN	0	0
416	3	88	1	self	1.5	NaN	green	1	left	left	GLO	none	close	1	intact	intact	592c03b4-010b-4f30-8521-fbf254e827b0_fps_avg_aud.mp4	0	0	NaN	NaN	NaN	none	none	NaN	0	0
416	3	89	1	self	1.5	NaN	green	0	right	right	GLO	none	close	1	intact	intact	9e99d645-5200-4298-9c0f-4a18ab570a6d_fps_avg_aud.mp4	0	0	NaN	NaN	NaN	none	none	NaN	0	0
416	3	90	1	self	1.5	NaN	green	0	right	right	GLO	none	far	1	intact	intact	Nov30_fps_avg_aud.mp4	0	0	NaN	NaN	NaN	none	none	NaN	0	0
416	3	91	1	self	1.5	NaN	red	0	down	down	GLO	none	far	1	intact	intact	24481237-3ead-4e6a-9a61-be95f34bf5f2_fps_avg_aud.mp4	0	0	NaN	NaN	NaN	none	none	NaN	0	0
416	3	92	1	self	1.5	NaN	yellow	1	up	up	GLO	none	close	1	intact	intact	e5ba6207-d3a1-4e68-9c36-3fbb5658f232_fps_avg_aud.mp4	0	0	NaN	NaN	NaN	none	none	NaN	0	0
416	3	93	1	self	1.5	NaN	yellow	0	left	left	GLO	none	far	1	intact	intact	Dec21_fps_avg_aud.mp4	0	0	NaN	NaN	NaN	none	none	NaN	0	0
416	4	1	0	auto	0.5	0.516466	green	0	right	right	GLO	right	close	1	intact	intact	Mar23_fps_avg_aud.mp4	1	166	2.38142	0.645408	2	right	green	1	0.001	low
416	4	2	0	auto	0.5	0.513418	yellow	0	left	left	GLO	right	far	1	intact	intact	b502b8fe-bf35-4777-bc2b-b5e93b1b3223_fps_avg_aud.mp4	1	0	0.782415	0	1	left	yellow	1	0.002	low
416	4	3	0	auto	0.5	0.510976	yellow	1	down	down	GLO	left	far	1	intact	intact	d4f25bdd-9060-452d-8b9a-299b4d79a939_fps_avg_aud.mp4	1	0	0.880898	0	1	left	yellow	1	0.003	low
416	4	4	0	auto	0.5	0.511921	blue	0	up	up	GLO	right	close	0	intact	none	none	0	0	0.73113	0	1	up	blue	1	0.004	low
416	4	5	0	auto	0.5	0.50944	yellow	0	left	left	GLO	left	far	1	intact	intact	Dec23_fps_avg_aud.mp4	1	0	0.706404	0	1	left	yellow	1	0.005	low
416	4	6	0	auto	0.5	0.511108	green	1	up	up	GLO	right	close	0	intact	none	none	0	0	0.743173	0	1	right	green	1	0.006	low
416	4	7	0	auto	0.5	0.51327	blue	1	left	left	GLO	right	far	1	intact	intact	11f7e237-860e-4d5b-9743-89fc16a3360b_fps_avg_aud.mp4	1	0	0.748428	0	1	up	blue	1	0.007	low
416	4	8	0	auto	0.5	0.511465	yellow	1	right	right	GLO	left	far	1	intact	intact	December_2015_fps_avg_aud.mp4	1	0	0.588136	0	1	left	yellow	1	0.008	low
416	4	9	0	auto	0.5	0.51252	blue	1	down	down	GLO	left	close	1	intact	intact	c939d2dd-f401-4cdf-bab0-fe7457cad0a4_fps_avg_aud.mp4	1	39	1.08228	0.21326	2	up	blue	1	0.009	low
416	4	10	0	auto	0.5	0.513447	blue	1	down	down	GLO	left	far	1	intact	intact	ea6675d4-3684-48c3-9bd0-c32d38c48c9e_fps_avg_aud.mp4	1	0	0.613234	0	1	up	blue	1	0.01	low
416	4	11	0	auto	0.5	0.510202	blue	1	right	right	GLO	left	close	1	intact	intact	34317ec5-8b9d-4b06-8954-49f3b4c2619c_fps_avg_aud.mp4	1	0	0.614864	0	1	up	blue	1	0.011	low
416	4	12	0	auto	0.5	0.512764	yellow	1	right	right	GLO	right	close	1	intact	intact	a525e336-0ec0-4048-92cf-487e44952f5c_fps_avg_aud.mp4	1	19	0.736783	0.0698441	1	left	yellow	1	0.012	low
416	4	13	0	auto	0.5	0.509221	green	0	right	right	GLO	left	far	0	intact	none	none	0	0	0.915663	0	1	right	green	1	0.013	low
416	4	14	0	auto	0.5	0.510882	green	1	left	left	GLO	right	far	1	intact	intact	May28_fps_avg_aud.mp4	1	0	0.715274	0	1	right	green	1	0.014	low
416	4	15	0	auto	0.5	0.511943	blue	0	up	up	GLO	right	close	1	intact	intact	e3992607-d25b-430c-bd18-12cb4a6d1b28_fps_avg_aud.mp4	1	34	0.818569	0.175119	1	up	blue	1	0.015	low
416	4	16	0	auto	0.5	0.509937	red	0	down	down	GLO	right	far	1	intact	intact	March25_2016_fps_avg_aud.mp4	1	0	1.38265	0	1	down	red	1	0.016	low
416	4	17	0	auto	0.5	0.513035	red	1	right	right	GLO	left	close	0	intact	none	none	0	0	0.998624	0	1	down	red	1	0.017	low
416	4	18	0	auto	0.5	0.511957	yellow	1	up	up	GLO	right	far	1	intact	intact	2016_fps_avg_aud.mp4	1	0	0.703252	0	1	left	yellow	1	0.018	low
416	4	19	0	auto	0.5	0.510522	green	0	right	right	GLO	right	far	1	intact	intact	637444dd-82ca-432a-beab-7eb721de8b71_fps_avg_aud.mp4	1	0	1.03133	0	1	right	green	1	0.019	low
416	4	20	0	auto	0.5	0.511576	green	0	right	right	GLO	right	far	1	intact	intact	16ad27d6-0718-41b8-94e7-1c37789ce6cb_fps_avg_aud.mp4	1	0	0.597011	0	1	right	green	1	0.02	low
416	4	21	0	auto	0.5	0.512767	yellow	0	left	left	GLO	right	far	0	intact	none	none	0	0	0.515107	0	1	left	yellow	1	0.021	low
416	4	22	0	auto	0.5	0.51415	red	0	down	down	GLO	left	close	0	intact	none	none	0	0	0.898689	0	1	down	red	1	0.022	low
416	4	23	0	auto	0.5	0.511125	red	1	up	up	GLO	right	close	1	intact	intact	fa34c2a5-d3e2-4d1e-914f-e40c92a49120_fps_avg_aud.mp4	1	0	0.851035	0	1	down	red	1	0.023	low
416	4	24	0	auto	0.5	0.510584	yellow	0	left	left	GLO	right	far	1	intact	intact	02c095ee-b711-4594-b27d-87092fa292bb_fps_avg_aud.mp4	1	0	0.55002	0	1	left	yellow	1	0.024	low
416	4	25	0	auto	0.5	0.509483	blue	1	right	right	GLO	right	far	0	intact	none	none	0	0	0.582376	0	1	up	blue	1	0.025	low
416	4	26	0	auto	0.5	0.511583	blue	1	right	right	GLO	right	far	0	intact	none	none	0	0	0.581939	0	1	up	blue	1	0.026	low
416	4	27	0	auto	0.5	0.511541	yellow	0	left	left	GLO	right	close	1	intact	intact	Jan13_fps_avg_aud.mp4	1	0	0.596333	0	1	left	yellow	1	0.027	low
416	4	28	0	auto	0.5	0.510592	red	0	down	down	GLO	right	far	0	intact	none	none	0	0	1.23209	0	1	down	red	1	0.028	low
416	4	29	0	auto	0.5	0.512054	yellow	1	right	right	GLO	right	close	0	intact	none	none	0	0	0.482021	0	1	left	yellow	1	0.029	low
416	4	30	0	auto	0.5	0.511646	green	1	down	down	GLO	left	close	0	intact	none	none	0	0	0.781446	0	1	right	green	1	0.03	low
416	4	31	0	auto	0.5	0.512319	blue	0	up	up	GLO	left	close	1	intact	intact	Sep27_fps_avg_aud.mp4	1	0	0.8821	0	1	up	blue	1	0.031	low
416	4	32	0	auto	0.5	0.511664	green	1	down	down	GLO	left	close	0	intact	none	none	0	0	0.998578	0	1	right	green	1	0.032	low
416	4	33	0	auto	0.5	0.511329	yellow	0	left	left	GLO	right	far	1	intact	intact	July27_fps_avg_aud.mp4	1	0	0.680795	0	1	left	yellow	1	0.033	low
416	4	34	0	auto	0.5	0.510279	yellow	1	right	right	GLO	right	close	1	intact	intact	Mar30_fps_avg_aud.mp4	1	0	0.598252	0	1	left	yellow	1	0.034	low
416	4	35	0	auto	0.5	0.512633	green	0	right	right	GLO	right	close	1	intact	intact	19665232-505f-47ba-bfb2-2e9668369ce4_fps_avg_aud.mp4	1	0	0.786248	0	1	right	green	1	0.035	low
416	4	36	0	auto	0.5	0.510907	red	0	down	down	GLO	right	far	1	intact	intact	c6481c95-a5c1-4e4c-bc78-4d2184182dd4_fps_avg_aud.mp4	1	0	1.0842	0	1	down	red	1	0.036	low
416	4	37	0	auto	0.5	0.511306	blue	0	up	up	GLO	left	close	1	intact	intact	Mar4_fps_avg_aud.mp4	1	0	0.774811	0	1	up	blue	1	0.037	low
416	4	38	0	auto	0.5	0.512517	green	1	left	left	GLO	right	close	1	intact	intact	1b336470-7a10-4cc7-aee4-3a5e6e6e551e_fps_avg_aud.mp4	1	286	2.21873	1.13596	2	right	green	1	0.038	low
416	4	39	0	auto	0.5	0.510721	blue	0	up	up	GLO	right	far	1	intact	intact	b70b2fc0-8728-4c47-a0fd-a887a904f1ee_fps_avg_aud.mp4	1	0	0.879403	0	1	up	blue	1	0.039	low
416	4	40	0	auto	0.5	0.511034	red	1	left	left	GLO	right	close	1	intact	intact	4db3f410-b7dd-4157-a876-374c50f0a479_fps_avg_aud.mp4	1	0	1.0597	0	1	down	red	1	0.04	low
416	4	41	0	auto	0.5	0.511699	blue	0	up	up	GLO	right	far	0	intact	none	none	0	0	0.9144	0	1	up	blue	1	0.041	low
416	4	42	0	auto	0.5	0.511711	yellow	1	right	right	GLO	right	far	1	intact	intact	Jnauary_2016_fps_avg_aud.mp4	1	0	0.642948	0	1	left	yellow	1	0.042	low
416	4	43	0	auto	0.5	NaN	red	1	up	up	GLO	none	close	0	intact	none	none	0	0	NaN	NaN	NaN	none	none	NaN	0.042	low
416	4	44	0	auto	0.5	NaN	red	0	down	down	GLO	none	far	1	intact	intact	Aug1_fps_avg_aud.mp4	0	0	NaN	NaN	NaN	none	none	NaN	0.042	low
416	4	45	0	auto	0.5	NaN	yellow	1	right	right	GLO	none	far	1	intact	intact	July25_fps_avg_aud.mp4	0	0	NaN	NaN	NaN	none	none	NaN	0.042	low
416	4	46	0	auto	0.5	NaN	green	0	right	right	GLO	none	close	1	intact	intact	8b38af47-0b70-4682-ac0e-c7a415e91156_fps_avg_aud.mp4	0	0	NaN	NaN	NaN	none	none	NaN	0.042	low
416	4	47	0	auto	0.5	NaN	red	1	left	left	GLO	none	close	0	intact	none	none	0	0	NaN	NaN	NaN	none	none	NaN	0.042	low
416	4	48	0	auto	0.5	NaN	blue	1	right	right	GLO	none	far	1	intact	intact	Jan11_fps_avg_aud.mp4	0	0	NaN	NaN	NaN	none	none	NaN	0.042	low
416	4	49	0	auto	0.5	NaN	green	0	right	right	GLO	none	far	1	intact	intact	1c37d23d-fc2a-4933-8024-0106ebebe6c4_fps_avg_aud.mp4	0	0	NaN	NaN	NaN	none	none	NaN	0.042	low
416	4	50	0	auto	0.5	NaN	red	1	right	right	GLO	none	far	1	intact	intact	Aug18_fps_avg_aud.mp4	0	0	NaN	NaN	NaN	none	none	NaN	0.042	low
416	4	51	0	auto	0.5	NaN	red	1	up	up	GLO	none	close	1	intact	intact	bfb0b536-e287-45e9-a605-3cba4dd07d9b_fps_avg_aud.mp4	0	0	NaN	NaN	NaN	none	none	NaN	0.042	low
416	4	52	0	auto	0.5	NaN	yellow	1	down	down	GLO	none	close	0	intact	none	none	0	0	NaN	NaN	NaN	none	none	NaN	0.042	low
416	4	53	0	auto	0.5	NaN	blue	1	right	right	GLO	none	far	1	intact	intact	September_2016_(2)_fps_avg_aud.mp4	0	0	NaN	NaN	NaN	none	none	NaN	0.042	low
416	4	54	0	auto	0.5	NaN	blue	1	right	right	GLO	none	far	0	intact	none	none	0	0	NaN	NaN	NaN	none	none	NaN	0.042	low
416	4	55	0	auto	0.5	NaN	blue	0	up	up	GLO	none	close	0	intact	none	none	0	0	NaN	NaN	NaN	none	none	NaN	0.042	low
416	4	56	0	auto	0.5	NaN	blue	0	up	up	GLO	none	close	1	intact	intact	9e99d645-5200-4298-9c0f-4a18ab570a6d_fps_avg_aud.mp4	0	0	NaN	NaN	NaN	none	none	NaN	0.042	low
416	4	57	0	auto	0.5	NaN	blue	0	up	up	GLO	none	far	1	intact	intact	667c6586-78bc-49b6-b207-12bdfa8fdd9e_fps_avg_aud.mp4	0	0	NaN	NaN	NaN	none	none	NaN	0.042	low
416	4	58	0	auto	0.5	NaN	green	1	left	left	GLO	none	close	1	intact	intact	326ee18c-0cd5-4c39-ac0f-082f53449aa4_fps_avg_aud.mp4	0	0	NaN	NaN	NaN	none	none	NaN	0.042	low
416	4	59	0	auto	0.5	NaN	green	0	right	right	GLO	none	far	1	intact	intact	b4d84d1f-224c-4414-9045-0f7e4fc94012_fps_avg_aud.mp4	0	0	NaN	NaN	NaN	none	none	NaN	0.042	low
416	4	60	0	auto	0.5	NaN	green	0	right	right	GLO	none	close	1	intact	intact	Aug17_fps_avg_aud.mp4	0	0	NaN	NaN	NaN	none	none	NaN	0.042	low
416	4	61	0	auto	0.5	NaN	red	1	up	up	GLO	none	far	1	intact	intact	54741aa9-fdb7-4546-b60b-078b0914ddd1_fps_avg_aud.mp4	0	0	NaN	NaN	NaN	none	none	NaN	0.042	low
416	4	62	0	auto	0.5	NaN	yellow	0	left	left	GLO	none	far	1	intact	intact	Sep24_fps_avg_aud.mp4	0	0	NaN	NaN	NaN	none	none	NaN	0.042	low
416	4	63	0	auto	0.5	NaN	red	1	up	up	GLO	none	close	1	intact	intact	Mar19_fps_avg_aud.mp4	0	0	NaN	NaN	NaN	none	none	NaN	0.042	low
416	4	64	0	auto	0.5	NaN	yellow	0	left	left	GLO	none	close	1	intact	intact	August_2,_2015_fps_avg_aud.mp4	0	0	NaN	NaN	NaN	none	none	NaN	0.042	low
416	4	65	0	auto	0.5	NaN	red	1	right	right	GLO	none	close	0	intact	none	none	0	0	NaN	NaN	NaN	none	none	NaN	0.042	low
416	4	66	0	auto	0.5	NaN	green	1	down	down	GLO	none	far	1	intact	intact	241df9f5-fbf5-49b9-a03c-764ba4b6ace9_fps_avg_aud.mp4	0	0	NaN	NaN	NaN	none	none	NaN	0.042	low
416	4	67	0	auto	0.5	NaN	yellow	1	down	down	GLO	none	close	1	intact	intact	202647f1-9373-4eb4-ac9a-27bf605f227d_fps_avg_aud.mp4	0	0	NaN	NaN	NaN	none	none	NaN	0.042	low
416	4	68	0	auto	0.5	NaN	blue	0	up	up	GLO	none	close	0	intact	none	none	0	0	NaN	NaN	NaN	none	none	NaN	0.042	low
416	4	69	0	auto	0.5	NaN	green	0	right	right	GLO	none	far	1	intact	intact	November_14_2016_fps_avg_aud.mp4	0	0	NaN	NaN	NaN	none	none	NaN	0.042	low
416	4	70	0	auto	0.5	NaN	blue	0	up	up	GLO	none	close	1	intact	intact	October_10_2016_(1)_fps_avg_aud.mp4	0	0	NaN	NaN	NaN	none	none	NaN	0.042	low
416	4	71	0	auto	0.5	NaN	yellow	1	down	down	GLO	none	close	1	intact	intact	May_2016_(1)_fps_avg_aud.mp4	0	0	NaN	NaN	NaN	none	none	NaN	0.042	low
416	4	72	0	auto	0.5	NaN	blue	1	left	left	GLO	none	far	1	intact	intact	ac2b9dfa-7a4b-40ef-9499-c883a9127ad7_fps_avg_aud.mp4	0	0	NaN	NaN	NaN	none	none	NaN	0.042	low
416	4	73	0	auto	0.5	NaN	blue	1	left	left	GLO	none	close	0	intact	none	none	0	0	NaN	NaN	NaN	none	none	NaN	0.042	low
416	4	74	0	auto	0.5	NaN	blue	0	up	up	GLO	none	far	1	intact	intact	May7_fps_avg_aud.mp4	0	0	NaN	NaN	NaN	none	none	NaN	0.042	low
416	4	75	0	auto	0.5	NaN	blue	1	right	right	GLO	none	close	1	intact	intact	Mar3_fps_avg_aud.mp4	0	0	NaN	NaN	NaN	none	none	NaN	0.042	low
416	4	76	0	auto	0.5	NaN	yellow	0	left	left	GLO	none	far	1	intact	intact	Jun19_fps_avg_aud.mp4	0	0	NaN	NaN	NaN	none	none	NaN	0.042	low
416	4	77	0	auto	0.5	NaN	yellow	1	up	up	GLO	none	far	0	intact	none	none	0	0	NaN	NaN	NaN	none	none	NaN	0.042	low
416	4	78	0	auto	0.5	NaN	yellow	0	left	left	GLO	none	close	0	intact	none	none	0	0	NaN	NaN	NaN	none	none	NaN	0.042	low
416	4	79	0	auto	0.5	NaN	red	1	up	up	GLO	none	far	1	intact	intact	Sep19_fps_avg_aud.mp4	0	0	NaN	NaN	NaN	none	none	NaN	0.042	low
416	4	80	0	auto	0.5	NaN	yellow	0	left	left	GLO	none	far	1	intact	intact	856001bb-aa8d-41ae-ad3d-fd9ff39c28c0_fps_avg_aud.mp4	0	0	NaN	NaN	NaN	none	none	NaN	0.042	low
416	4	81	0	auto	0.5	NaN	yellow	1	down	down	GLO	none	far	0	intact	none	none	0	0	NaN	NaN	NaN	none	none	NaN	0.042	low
416	4	82	0	auto	0.5	NaN	red	1	right	right	GLO	none	close	0	intact	none	none	0	0	NaN	NaN	NaN	none	none	NaN	0.042	low
416	4	83	0	auto	0.5	NaN	blue	1	left	left	GLO	none	far	0	intact	none	none	0	0	NaN	NaN	NaN	none	none	NaN	0.042	low
416	4	84	0	auto	0.5	NaN	red	0	down	down	GLO	none	close	1	intact	intact	Jun8_fps_avg_aud.mp4	0	0	NaN	NaN	NaN	none	none	NaN	0.042	low
416	4	85	0	auto	0.5	NaN	yellow	0	left	left	GLO	none	close	1	intact	intact	June_2016_(1)_fps_avg_aud.mp4	0	0	NaN	NaN	NaN	none	none	NaN	0.042	low
416	4	86	0	auto	0.5	NaN	red	1	up	up	GLO	none	far	1	intact	intact	a066c606-67e2-4c5d-b13d-471a21a18633_fps_avg_aud.mp4	0	0	NaN	NaN	NaN	none	none	NaN	0.042	low
416	4	87	0	auto	0.5	NaN	red	1	up	up	GLO	none	far	1	intact	intact	4d617426-ab8c-4125-9dcf-178529ca54a1_fps_avg_aud.mp4	0	0	NaN	NaN	NaN	none	none	NaN	0.042	low
416	4	88	0	auto	0.5	NaN	red	1	right	right	GLO	none	close	1	intact	intact	5e28083f-f416-4168-bfde-2e1ddfaaf60e_fps_avg_aud.mp4	0	0	NaN	NaN	NaN	none	none	NaN	0.042	low
416	4	89	0	auto	0.5	NaN	yellow	0	left	left	GLO	none	close	1	intact	intact	May8_fps_avg_aud.mp4	0	0	NaN	NaN	NaN	none	none	NaN	0.042	low
416	4	90	0	auto	0.5	NaN	yellow	0	left	left	GLO	none	close	0	intact	none	none	0	0	NaN	NaN	NaN	none	none	NaN	0.042	low
416	4	91	0	auto	0.5	NaN	red	0	down	down	GLO	none	far	1	intact	intact	e9f06abd-24bb-46d2-ac8b-3a473a758d7e_fps_avg_aud.mp4	0	0	NaN	NaN	NaN	none	none	NaN	0.042	low
416	4	92	0	auto	0.5	NaN	yellow	1	down	down	GLO	none	far	1	intact	intact	Mar14_fps_avg_aud.mp4	0	0	NaN	NaN	NaN	none	none	NaN	0.042	low
416	4	93	0	auto	0.5	NaN	red	1	up	up	GLO	none	close	1	intact	intact	11bc07f6-cbc9-48b9-a240-792e373d6a2a_fps_avg_aud.mp4	0	0	NaN	NaN	NaN	none	none	NaN	0.042	low
416	5	1	0	auto	0.5	0.516704	yellow	0	left	left	GLO	right	far	1	intact	intact	July_2015_(2)_fps_avg_aud.mp4	1	0	0.548426	0	1	left	yellow	1	0.052	high
416	5	2	0	auto	0.5	0.512988	red	0	down	down	GLO	left	far	1	intact	intact	5a4ed86a-8ef5-4056-813c-083746f26c03_fps_avg_aud.mp4	1	0	0.947884	0	1	down	red	1	0.062	high
416	5	3	0	auto	0.5	0.513967	red	1	left	left	GLO	left	close	1	intact	intact	8b0c9e6a-53bd-46f6-908f-7a8316798b92_fps_avg_aud.mp4	1	0	0.784437	0	1	down	red	1	0.072	high
416	5	4	0	auto	0.5	0.509521	red	0	down	down	GLO	right	far	1	intact	intact	Nov30_fps_avg_aud.mp4	1	0	0.697818	0	1	down	red	1	0.082	high
416	5	5	0	auto	0.5	0.511576	red	0	down	down	GLO	right	far	0	intact	none	none	0	0	0.738686	0	1	down	red	1	0.092	high
416	5	6	0	auto	0.5	0.51132	red	0	down	down	GLO	right	far	1	intact	intact	0634b486-cb5f-4c95-88ac-759458166474_fps_avg_aud.mp4	1	0	0.642668	0	1	down	red	1	0.102	high
416	5	7	0	auto	0.5	0.509802	blue	0	up	up	GLO	left	close	1	intact	intact	cfead01b-2f72-4131-8069-3f2052f352e3_fps_avg_aud.mp4	1	0	0.776861	0	1	up	blue	1	0.112	high
416	5	8	0	auto	0.5	0.51055	red	1	left	left	GLO	right	close	0	intact	none	none	0	0	0.864936	0	1	down	red	1	0.122	high
416	5	9	0	auto	0.5	0.510644	blue	0	up	up	GLO	right	close	1	intact	intact	7fe27e44-a1be-4335-89c2-e510e239df64_fps_avg_aud.mp4	1	0	0.78137	0	1	up	blue	1	0.132	high
416	5	10	0	auto	0.5	0.512711	blue	1	left	left	GLO	left	close	0	intact	none	none	0	0	1.14717	0	1	up	blue	1	0.142	high
416	5	11	0	auto	0.5	0.509506	yellow	1	down	down	GLO	right	far	1	intact	intact	Feb29_fps_avg_aud.mp4	1	0	1.33153	0	1	left	yellow	1	0.152	high
416	5	12	0	auto	0.5	0.509356	green	1	left	left	GLO	right	close	1	intact	intact	8fc730b2-0fc1-4125-9e0e-c9ed1f9ab58a_fps_avg_aud.mp4	1	0	0.486649	0	1	right	green	1	0.162	high
416	5	13	0	auto	0.5	0.511535	yellow	0	left	left	GLO	right	close	1	intact	intact	1bfb8d40-5675-4acc-87b4-a7f11b6242ea_fps_avg_aud.mp4	1	0	0.429772	0	1	left	yellow	1	0.172	high
416	5	14	0	auto	0.5	0.51409	green	0	right	right	GLO	right	close	0	intact	none	none	0	0	0.556734	0	1	right	green	1	0.182	high
416	5	15	0	auto	0.5	0.510928	green	1	up	up	GLO	left	close	1	intact	intact	Dec25_fps_avg_aud.mp4	1	0	0.643066	0	1	right	green	1	0.192	high
416	5	16	0	auto	0.5	0.510121	red	1	left	left	GLO	right	far	0	intact	none	none	0	0	0.865013	0	1	down	red	1	0.202	high
416	5	17	0	auto	0.5	0.511408	blue	0	up	up	GLO	left	far	0	intact	none	none	0	0	0.497689	0	1	up	blue	1	0.212	high
416	5	18	0	auto	0.5	0.511872	blue	0	up	up	GLO	left	close	1	intact	intact	January_2016_(2)_fps_avg_aud.mp4	1	0	0.698449	0	1	up	blue	1	0.222	high
416	5	19	0	auto	0.5	0.509774	red	1	right	right	GLO	right	far	0	intact	none	none	0	0	1.21481	0	1	down	red	1	0.232	high
416	5	20	0	auto	0.5	0.511891	yellow	0	left	left	GLO	left	far	1	intact	intact	b151d8a6-cbea-4f58-ab0f-6c21bc545c88_fps_avg_aud.mp4	1	0	0.677852	0	1	left	yellow	1	0.242	high
416	5	21	0	auto	0.5	0.514028	blue	0	up	up	GLO	left	far	1	intact	intact	Sep7_fps_avg_aud.mp4	1	0	0.430562	0	1	up	blue	1	0.252	high
416	5	22	0	auto	0.5	0.511418	red	1	left	left	GLO	left	close	1	intact	intact	may_25_2015_fps_avg_aud.mp4	1	0	1.24362	0	1	down	red	1	0.262	high
416	5	23	0	auto	0.5	0.51241	green	0	right	right	GLO	right	close	0	intact	none	none	0	0	0.874849	0	1	right	green	1	0.272	high
416	5	24	0	auto	0.5	0.510932	blue	0	up	up	GLO	right	far	0	intact	none	none	0	0	1.08127	0	1	up	blue	1	0.282	high
416	5	25	0	auto	0.5	0.512109	blue	1	left	left	GLO	right	close	1	intact	intact	beb38bd6-976e-468f-9f23-b6b41f12ce11_fps_avg_aud.mp4	1	0	0.531813	0	1	up	blue	1	0.292	high
416	5	26	0	auto	0.5	0.510612	red	1	up	up	GLO	right	close	1	intact	intact	Sep20_fps_avg_aud.mp4	1	0	0.780669	0	1	down	red	1	0.302	high
416	5	27	0	auto	0.5	0.511934	green	0	right	right	GLO	left	far	1	intact	intact	November_2015_(2)_fps_avg_aud.mp4	1	0	0.54164	0	1	right	green	1	0.312	high
416	5	28	0	auto	0.5	0.511805	blue	0	up	up	GLO	left	close	1	intact	intact	53f27130-5392-4410-b48f-90a712697cfb_fps_avg_aud.mp4	1	0	0.757266	0	1	up	blue	1	0.322	high
416	5	29	0	auto	0.5	0.510378	red	0	down	down	GLO	left	far	0	intact	none	none	0	0	0.795735	0	1	down	red	1	0.332	high
416	5	30	0	auto	0.5	0.509045	green	1	down	down	GLO	right	far	0	intact	none	none	0	0	0.799138	0	1	right	green	1	0.342	high
416	5	31	0	auto	0.5	0.511275	blue	0	up	up	GLO	right	close	1	intact	intact	bb75a9e7-75e9-4641-8e0c-ecaabf7a7e69(1)_fps_avg_aud.mp4	1	0	0.481374	0	1	up	blue	1	0.352	high
416	5	32	0	auto	0.5	0.511394	yellow	1	down	down	GLO	right	far	1	intact	intact	Feb28_fps_avg_aud.mp4	1	0	0.406018	0	1	left	yellow	1	0.362	high
416	5	33	0	auto	0.5	0.510924	green	0	right	right	GLO	left	far	1	intact	intact	fb42eb92-ecec-41cf-8ef3-e4a7b0a219f1_fps_avg_aud.mp4	1	0	0.648259	0	1	right	green	1	0.372	high
416	5	34	0	auto	0.5	0.510697	blue	1	left	left	GLO	left	far	1	intact	intact	December_2015_(1)_fps_avg_aud.mp4	1	0	0.42024	0	1	up	blue	1	0.382	high
416	5	35	0	auto	0.5	0.509914	red	0	down	down	GLO	left	close	1	intact	intact	1ad967f4-1728-4eb7-88a5-9d6ad488c3b4_fps_avg_aud.mp4	1	0	0.782863	0	1	down	red	1	0.392	high
416	5	36	0	auto	0.5	0.512284	green	1	down	down	GLO	right	far	1	intact	intact	ac670a32-9758-4aa8-b876-775cfe4f2e47_fps_avg_aud.mp4	1	0	0.44682	0	1	right	green	1	0.402	high
416	5	37	0	auto	0.5	0.511791	red	0	down	down	GLO	right	far	0	intact	none	none	0	0	0.755355	0	1	down	red	1	0.412	high
416	5	38	0	auto	0.5	0.510797	green	1	left	left	GLO	left	far	1	intact	intact	Dec4_fps_avg_aud.mp4	1	0	0.456096	0	1	right	green	1	0.422	high
416	5	39	0	auto	0.5	0.510154	blue	1	right	right	GLO	left	far	1	intact	intact	Mar21_fps_avg_aud.mp4	1	0	0.697945	0	1	up	blue	1	0.432	high
416	5	40	0	auto	0.5	0.511362	green	0	right	right	GLO	left	far	1	intact	intact	a66e9cf1-4573-4450-a822-0bcc91474968_fps_avg_aud.mp4	1	0	0.50654	0	1	right	green	1	0.442	high
416	5	41	0	auto	0.5	0.510656	blue	0	up	up	GLO	right	close	1	intact	intact	058bdf98-bb64-4851-92f5-ffad71866ee8_fps_avg_aud.mp4	1	0	0.569373	0	1	up	blue	1	0.452	high
416	5	42	0	auto	0.5	0.511032	blue	0	up	up	GLO	left	far	1	intact	intact	August_3_2016_fps_avg_aud.mp4	1	0	0.625525	0	1	up	blue	1	0.462	high
416	5	43	0	auto	0.5	0.514634	red	0	down	down	GLO	right	far	1	intact	intact	0602c0a8-082a-4bca-9f5b-70795017698f_fps_avg_aud.mp4	1	0	0.816835	0	1	down	red	1	0.472	high
416	5	44	0	auto	0.5	0.511143	blue	1	down	down	GLO	left	far	0	intact	none	none	0	0	0.814537	0	1	up	blue	1	0.482	high
416	5	45	0	auto	0.5	0.512525	blue	1	left	left	GLO	left	far	1	intact	intact	f5740bdb-f6a7-4842-9fa8-065f8eed57f4_fps_avg_aud.mp4	1	0	0.464782	0	1	up	blue	1	0.492	high
416	5	46	0	auto	0.5	0.512327	red	1	left	left	GLO	right	close	0	intact	none	none	0	0	0.648163	0	1	right	green	0	0.482	high
416	5	47	0	auto	0.5	0.509946	red	1	up	up	GLO	left	far	0	intact	none	none	0	0	0.915036	0	1	down	red	1	0.492	high
416	5	48	0	auto	0.5	NaN	red	1	left	left	GLO	none	close	1	intact	intact	January_10_2016_fps_avg_aud.mp4	0	0	NaN	NaN	NaN	none	none	NaN	0.492	high
416	5	49	0	auto	0.5	NaN	blue	0	up	up	GLO	none	far	1	intact	intact	cabd6947-9e88-4e9a-90fa-985b610f3784_fps_avg_aud.mp4	0	0	NaN	NaN	NaN	none	none	NaN	0.492	high
416	5	50	0	auto	0.5	NaN	yellow	1	up	up	GLO	none	close	1	intact	intact	march_21_2016_fps_avg_aud.mp4	0	0	NaN	NaN	NaN	none	none	NaN	0.492	high
416	5	51	0	auto	0.5	NaN	red	1	up	up	GLO	none	far	1	intact	intact	june_18_2015_fps_avg_aud.mp4	0	0	NaN	NaN	NaN	none	none	NaN	0.492	high
416	5	52	0	auto	0.5	NaN	yellow	0	left	left	GLO	none	far	1	intact	intact	Nov7_fps_avg_aud.mp4	0	0	NaN	NaN	NaN	none	none	NaN	0.492	high
416	5	53	0	auto	0.5	NaN	red	0	down	down	GLO	none	far	0	intact	none	none	0	0	NaN	NaN	NaN	none	none	NaN	0.492	high
416	5	54	0	auto	0.5	NaN	blue	0	up	up	GLO	none	close	0	intact	none	none	0	0	NaN	NaN	NaN	none	none	NaN	0.492	high
416	5	55	0	auto	0.5	NaN	red	1	left	left	GLO	none	far	1	intact	intact	Dec8_fps_avg_aud.mp4	0	0	NaN	NaN	NaN	none	none	NaN	0.492	high
416	5	56	0	auto	0.5	NaN	green	0	right	right	GLO	none	close	0	intact	none	none	0	0	NaN	NaN	NaN	none	none	NaN	0.492	high
416	5	57	0	auto	0.5	NaN	green	1	up	up	GLO	none	far	1	intact	intact	Jun8_fps_avg_aud.mp4	0	0	NaN	NaN	NaN	none	none	NaN	0.492	high
416	5	58	0	auto	0.5	NaN	red	1	right	right	GLO	none	far	1	intact	intact	Dec26_fps_avg_aud.mp4	0	0	NaN	NaN	NaN	none	none	NaN	0.492	high
416	5	59	0	auto	0.5	NaN	blue	0	up	up	GLO	none	far	1	intact	intact	d19912fa-a840-4a29-b318-5be5c947f24f_fps_avg_aud.mp4	0	0	NaN	NaN	NaN	none	none	NaN	0.492	high
416	5	60	0	auto	0.5	NaN	blue	1	right	right	GLO	none	close	1	intact	intact	Jul10_fps_avg_aud.mp4	0	0	NaN	NaN	NaN	none	none	NaN	0.492	high
416	5	61	0	auto	0.5	NaN	yellow	1	down	down	GLO	none	far	1	intact	intact	january_31_2016_fps_avg_aud.mp4	0	0	NaN	NaN	NaN	none	none	NaN	0.492	high
416	5	62	0	auto	0.5	NaN	red	0	down	down	GLO	none	far	1	intact	intact	Apr16_fps_avg_aud.mp4	0	0	NaN	NaN	NaN	none	none	NaN	0.492	high
416	5	63	0	auto	0.5	NaN	red	1	left	left	GLO	none	close	0	intact	none	none	0	0	NaN	NaN	NaN	none	none	NaN	0.492	high
416	5	64	0	auto	0.5	NaN	blue	0	up	up	GLO	none	far	0	intact	none	none	0	0	NaN	NaN	NaN	none	none	NaN	0.492	high
416	5	65	0	auto	0.5	NaN	green	1	up	up	GLO	none	close	1	intact	intact	Mar19_fps_avg_aud.mp4	0	0	NaN	NaN	NaN	none	none	NaN	0.492	high
416	5	66	0	auto	0.5	NaN	yellow	1	up	up	GLO	none	close	1	intact	intact	533b0238-357b-409c-8d86-25285970eb98_fps_avg_aud.mp4	0	0	NaN	NaN	NaN	none	none	NaN	0.492	high
416	5	67	0	auto	0.5	NaN	green	1	up	up	GLO	none	far	1	intact	intact	520ef496-2bf3-4f3e-8a54-00e0428b126c_fps_avg_aud.mp4	0	0	NaN	NaN	NaN	none	none	NaN	0.492	high
416	5	68	0	auto	0.5	NaN	yellow	0	left	left	GLO	none	close	1	intact	intact	Aug17_fps_avg_aud.mp4	0	0	NaN	NaN	NaN	none	none	NaN	0.492	high
416	5	69	0	auto	0.5	NaN	blue	0	up	up	GLO	none	close	0	intact	none	none	0	0	NaN	NaN	NaN	none	none	NaN	0.492	high
416	5	70	0	auto	0.5	NaN	yellow	1	right	right	GLO	none	close	1	intact	intact	8e04ddf1-d15f-4074-881d-a5c3c7dd3fab_fps_avg_aud.mp4	0	0	NaN	NaN	NaN	none	none	NaN	0.492	high
416	5	71	0	auto	0.5	NaN	red	1	right	right	GLO	none	close	1	intact	intact	b11b47e5-c9ce-4ff0-9f69-98698858b2d8_fps_avg_aud.mp4	0	0	NaN	NaN	NaN	none	none	NaN	0.492	high
416	5	72	0	auto	0.5	NaN	yellow	1	up	up	GLO	none	close	1	intact	intact	6ce71e9b-76db-4300-af8c-23df366c03d0_fps_avg_aud.mp4	0	0	NaN	NaN	NaN	none	none	NaN	0.492	high
416	5	73	0	auto	0.5	NaN	green	0	right	right	GLO	none	far	0	intact	none	none	0	0	NaN	NaN	NaN	none	none	NaN	0.492	high
416	5	74	0	auto	0.5	NaN	yellow	1	down	down	GLO	none	far	0	intact	none	none	0	0	NaN	NaN	NaN	none	none	NaN	0.492	high
416	5	75	0	auto	0.5	NaN	blue	0	up	up	GLO	none	close	1	intact	intact	24481237-3ead-4e6a-9a61-be95f34bf5f2_fps_avg_aud.mp4	0	0	NaN	NaN	NaN	none	none	NaN	0.492	high
416	5	76	0	auto	0.5	NaN	green	0	right	right	GLO	none	far	0	intact	none	none	0	0	NaN	NaN	NaN	none	none	NaN	0.492	high
416	5	77	0	auto	0.5	NaN	green	1	up	up	GLO	none	far	1	intact	intact	Sep24_fps_avg_aud.mp4	0	0	NaN	NaN	NaN	none	none	NaN	0.492	high
416	5	78	0	auto	0.5	NaN	blue	1	down	down	GLO	none	far	1	intact	intact	960000ea-ab44-4258-8824-51f8fdf7a806_fps_avg_aud.mp4	0	0	NaN	NaN	NaN	none	none	NaN	0.492	high
416	5	79	0	auto	0.5	NaN	blue	1	left	left	GLO	none	close	0	intact	none	none	0	0	NaN	NaN	NaN	none	none	NaN	0.492	high
416	5	80	0	auto	0.5	NaN	yellow	1	up	up	GLO	none	close	1	intact	intact	ed9842b1-ccb5-4e6e-8fcb-d81eb3d6f297_fps_avg_aud.mp4	0	0	NaN	NaN	NaN	none	none	NaN	0.492	high
416	5	81	0	auto	0.5	NaN	blue	1	down	down	GLO	none	close	1	intact	intact	483a899a-71a0-49cf-b2ba-f13374d6b0a8_fps_avg_aud.mp4	0	0	NaN	NaN	NaN	none	none	NaN	0.492	high
416	5	82	0	auto	0.5	NaN	yellow	0	left	left	GLO	none	close	1	intact	intact	cef9c179-f64d-4543-875f-6808da2329b6_fps_avg_aud.mp4	0	0	NaN	NaN	NaN	none	none	NaN	0.492	high
416	5	83	0	auto	0.5	NaN	red	1	up	up	GLO	none	far	0	intact	none	none	0	0	NaN	NaN	NaN	none	none	NaN	0.492	high
416	5	84	0	auto	0.5	NaN	yellow	0	left	left	GLO	none	close	1	intact	intact	b55ab065-b20b-4b90-b1fd-ca55d667b668_fps_avg_aud.mp4	0	0	NaN	NaN	NaN	none	none	NaN	0.492	high
416	5	85	0	auto	0.5	NaN	yellow	1	right	right	GLO	none	far	0	intact	none	none	0	0	NaN	NaN	NaN	none	none	NaN	0.492	high
416	5	86	0	auto	0.5	NaN	red	0	down	down	GLO	none	far	0	intact	none	none	0	0	NaN	NaN	NaN	none	none	NaN	0.492	high
416	5	87	0	auto	0.5	NaN	red	1	up	up	GLO	none	far	1	intact	intact	6189325b-e315-4417-8d81-a8cae54059df_fps_avg_aud.mp4	0	0	NaN	NaN	NaN	none	none	NaN	0.492	high
416	5	88	0	auto	0.5	NaN	blue	1	down	down	GLO	none	far	0	intact	none	none	0	0	NaN	NaN	NaN	none	none	NaN	0.492	high
416	5	89	0	auto	0.5	NaN	blue	0	up	up	GLO	none	far	1	intact	intact	bca3f84c-663e-49dd-9b23-05262dbf1e96_fps_avg_aud.mp4	0	0	NaN	NaN	NaN	none	none	NaN	0.492	high
416	5	90	0	auto	0.5	NaN	red	0	down	down	GLO	none	far	1	intact	intact	5022b285-2c2f-4e4f-824d-5e45be82c1a3_fps_avg_aud.mp4	0	0	NaN	NaN	NaN	none	none	NaN	0.492	high
416	5	91	0	auto	0.5	NaN	green	1	up	up	GLO	none	close	1	intact	intact	e5ba6207-d3a1-4e68-9c36-3fbb5658f232_fps_avg_aud.mp4	0	0	NaN	NaN	NaN	none	none	NaN	0.492	high
416	5	92	0	auto	0.5	NaN	red	0	down	down	GLO	none	close	1	intact	intact	a390325a-c9a6-4240-9459-3271767e2980_fps_avg_aud.mp4	0	0	NaN	NaN	NaN	none	none	NaN	0.492	high
416	5	93	0	auto	0.5	NaN	red	0	down	down	GLO	none	close	0	intact	none	none	0	0	NaN	NaN	NaN	none	none	NaN	0.492	high
416	6	1	0	self	0.5	0.51619	blue	1	left	left	GLO	left	close	1	intact	intact	July2_fps_avg_aud.mp4	0	0	1.26141	0	1	up	blue	1	0.493	low
416	6	2	0	self	0.5	0.511218	blue	1	down	down	GLO	right	far	1	intact	intact	c3c668bd-3353-4887-b3ff-6d0225f5629c_fps_avg_aud.mp4	0	0	0.416584	0	1	up	blue	1	0.494	low
416	6	3	0	self	0.5	0.509322	blue	1	down	down	GLO	left	close	1	intact	intact	74863169-b4eb-4472-bb27-c309a4fed0aa_fps_avg_aud.mp4	0	0	0.365275	0	1	up	blue	1	0.495	low
416	6	4	0	self	0.5	0.510434	red	0	down	down	GLO	right	far	1	intact	intact	612a0f1b-c1f3-4c75-bb69-404849fe6ff8_fps_avg_aud.mp4	0	0	0.88158	0	1	down	red	1	0.496	low
416	6	5	0	self	0.5	0.509202	red	0	down	down	GLO	right	close	1	intact	intact	639855c9-f7b0-4d31-8ca6-c12b36f03058_fps_avg_aud.mp4	0	0	0.81447	0	1	down	red	1	0.497	low
416	6	6	0	self	0.5	0.510669	blue	1	left	left	GLO	left	close	1	intact	intact	Feb25_fps_avg_aud.mp4	0	0	0.86493	0	1	up	blue	1	0.498	low
416	6	7	0	self	0.5	0.510817	yellow	1	down	down	GLO	left	far	1	intact	intact	cc0b25a9-3d1b-4c67-b1c5-5f27d60e59cb_fps_avg_aud.mp4	0	0	0.928647	0	1	left	yellow	1	0.499	low
416	6	8	0	self	0.5	0.511187	red	1	right	right	GLO	right	far	1	intact	intact	September_14_2016_fps_avg_aud.mp4	0	0	2.48169	0	1	down	red	1	0.5	low
416	6	9	0	self	0.5	0.510535	blue	1	left	left	GLO	left	close	1	intact	intact	334b06e5-5a99-4c23-b82f-0b02017f9d2e_fps_avg_aud.mp4	0	0	0.565459	0	1	up	blue	1	0.501	low
416	6	10	0	self	0.5	0.510591	green	1	up	up	GLO	left	far	1	intact	intact	Apr19_fps_avg_aud.mp4	1	1	1.23756	5.475e-06	2	right	green	1	0.502	low
416	6	11	0	self	0.5	0.511009	yellow	1	down	down	GLO	left	close	1	intact	intact	Dec12_fps_avg_aud.mp4	0	0	0.964648	0	1	left	yellow	1	0.503	low
416	6	12	0	self	0.5	0.510229	yellow	1	down	down	GLO	left	far	1	intact	intact	0fca764b-7147-4307-96dc-cc1807afd905_fps_avg_aud.mp4	0	0	0.456047	0	1	left	yellow	1	0.504	low
416	6	13	0	self	0.5	0.512338	yellow	0	left	left	GLO	right	far	1	intact	intact	bd5cc988-d64f-435a-a1d7-3a872e473f76_fps_avg_aud.mp4	0	0	0.365269	0	1	left	yellow	1	0.505	low
416	6	14	0	self	0.5	0.510652	red	0	down	down	GLO	left	close	1	intact	intact	August_2016_fps_avg_aud.mp4	0	0	0.88813	0	1	down	red	1	0.506	low
416	6	15	0	self	0.5	0.509716	green	0	right	right	GLO	left	close	1	intact	intact	Jan5_fps_avg_aud.mp4	0	0	0.932197	0	1	right	green	1	0.507	low
416	6	16	0	self	0.5	0.509078	red	0	down	down	GLO	right	far	1	intact	intact	de8d0a62-04ca-452a-a478-93877cedee98_fps_avg_aud.mp4	0	0	0.976956	0	1	down	red	1	0.508	low
416	6	17	0	self	0.5	0.510998	yellow	0	left	left	GLO	right	close	1	intact	intact	32b66b3c-9f3a-4856-9278-87ca4048d48e_fps_avg_aud.mp4	0	0	0.475386	0	1	left	yellow	1	0.509	low
416	6	18	0	self	0.5	0.508395	green	0	right	right	GLO	right	close	1	intact	intact	5e28083f-f416-4168-bfde-2e1ddfaaf60e_fps_avg_aud.mp4	0	0	0.681718	0	1	right	green	1	0.51	low
416	6	19	0	self	0.5	0.512336	green	1	left	left	GLO	right	far	1	intact	intact	bd3765b8-eb64-440a-a4a8-b6804686fcae_fps_avg_aud.mp4	0	0	0.616113	0	1	right	green	1	0.511	low
416	6	20	0	self	0.5	0.509609	green	0	right	right	GLO	left	far	1	intact	intact	eec24f3a-496f-4cb7-8f48-5bf5530f3e96_fps_avg_aud.mp4	0	0	0.547131	0	1	right	green	1	0.512	low
416	6	21	0	self	0.5	0.512445	yellow	1	right	right	GLO	right	close	1	intact	intact	520ef496-2bf3-4f3e-8a54-00e0428b126c_fps_avg_aud.mp4	0	0	0.665545	0	1	left	yellow	1	0.513	low
416	6	22	0	self	0.5	0.511739	green	0	right	right	GLO	right	close	1	intact	intact	Jan20_fps_avg_aud.mp4	0	0	0.931641	0	1	right	green	1	0.514	low
416	6	23	0	self	0.5	0.510718	yellow	0	left	left	GLO	left	close	1	intact	intact	fc42fffc-beb2-426f-85f8-fe9f11671486_fps_avg_aud.mp4	0	0	0.563888	0	1	left	yellow	1	0.515	low
416	6	24	0	self	0.5	0.512374	red	0	down	down	GLO	right	close	1	intact	intact	838aaec1-d86d-4006-a165-4cb3e5f6444b_fps_avg_aud.mp4	0	0	0.961979	0	1	down	red	1	0.516	low
416	6	25	0	self	0.5	0.513043	red	0	down	down	GLO	left	close	1	intact	intact	7720ddf1-f518-43df-bdba-7009c0432e63_fps_avg_aud.mp4	0	0	0.898479	0	1	down	red	1	0.517	low
416	6	26	0	self	0.5	0.512686	green	0	right	right	GLO	right	far	1	intact	intact	abff9cfd-d67a-47e2-bc3f-92551e8414e2(1)_fps_avg_aud.mp4	0	0	0.649222	0	1	right	green	1	0.518	low
416	6	27	0	self	0.5	0.511854	yellow	1	right	right	GLO	left	far	1	intact	intact	94b03dc1-7d37-4553-b382-cb9494e3b7f1_fps_avg_aud.mp4	0	0	0.638526	0	1	left	yellow	1	0.519	low
416	6	28	0	self	0.5	0.512486	red	0	down	down	GLO	left	far	1	intact	intact	17cc3183-9fa6-42da-8814-3bcbf562eceb_fps_avg_aud.mp4	0	0	0.848442	0	1	down	red	1	0.52	low
416	6	29	0	self	0.5	0.513209	red	1	left	left	GLO	left	far	1	intact	intact	bbadcc83-10bb-4a2d-a28a-1d6b44f33770_fps_avg_aud.mp4	0	0	0.628122	0	1	down	red	1	0.521	low
416	6	30	0	self	0.5	0.511008	yellow	0	left	left	GLO	right	close	1	intact	intact	4f243f72-5a08-4b19-aa43-2448c9f0545d_fps_avg_aud.mp4	0	0	0.49675	0	1	left	yellow	1	0.522	low
416	6	31	0	self	0.5	0.513099	blue	0	up	up	GLO	left	close	1	intact	intact	Apr30_fps_avg_aud.mp4	0	0	0.342695	0	1	up	blue	1	0.523	low
416	6	32	0	self	0.5	0.509229	red	0	down	down	GLO	right	far	1	intact	intact	January_10_2016_fps_avg_aud.mp4	0	0	1.03208	0	1	down	red	1	0.524	low
416	6	33	0	self	0.5	0.509597	yellow	1	up	up	GLO	right	far	1	intact	intact	Nov7_fps_avg_aud.mp4	0	0	0.696645	0	1	left	yellow	1	0.525	low
416	6	34	0	self	0.5	0.51053	blue	1	left	left	GLO	right	far	1	intact	intact	d908683d-e7f6-43aa-ac1d-27222b281fc0_fps_avg_aud.mp4	0	0	0.69815	0	1	right	green	0	0.524	low
416	6	35	0	self	0.5	0.511101	yellow	1	right	right	GLO	right	close	1	intact	intact	e00791ee-f5a4-4315-8214-e183c3e1d2cf_fps_avg_aud.mp4	0	0	1.86503	0	1	left	yellow	1	0.525	low
416	6	36	0	self	0.5	0.510628	blue	0	up	up	GLO	left	close	1	intact	intact	caf1693c-0eef-47ff-aee9-5348af86759e_fps_avg_aud.mp4	0	0	1.81424	0	1	up	blue	1	0.526	low
416	6	37	0	self	0.5	0.513008	red	1	right	right	GLO	left	close	1	intact	intact	e3ba147b-ae8e-4b27-9412-577f6cfd64f4_fps_avg_aud.mp4	0	0	0.797675	0	1	down	red	1	0.527	low
416	6	38	0	self	0.5	0.51054	blue	1	right	right	GLO	right	far	1	intact	intact	06166668-1aac-4d03-b242-d4a5635a694b_fps_avg_aud.mp4	0	0	0.580943	0	1	up	blue	1	0.528	low
416	6	39	0	self	0.5	0.509974	green	1	left	left	GLO	left	close	1	intact	intact	Nov10_fps_avg_aud.mp4	0	0	0.698987	0	1	right	green	1	0.529	low
416	6	40	0	self	0.5	0.50833	yellow	0	left	left	GLO	left	close	1	intact	intact	Jun5_fps_avg_aud.mp4	0	0	0.397315	0	1	left	yellow	1	0.53	low
416	6	41	0	self	0.5	0.511375	blue	0	up	up	GLO	left	close	1	intact	intact	779aa7ea-420b-4390-a149-5f24d3acfbfd_fps_avg_aud.mp4	0	0	0.748239	0	1	up	blue	1	0.531	low
416	6	42	0	self	0.5	0.510254	green	1	left	left	GLO	right	close	1	intact	intact	cef9c179-f64d-4543-875f-6808da2329b6_fps_avg_aud.mp4	0	0	1.00689	0	1	right	green	1	0.532	low
416	6	43	0	self	0.5	0.510265	red	0	down	down	GLO	right	close	1	intact	intact	Aug12_fps_avg_aud.mp4	0	0	0.756629	0	1	down	red	1	0.533	low
416	6	44	0	self	0.5	NaN	green	0	right	right	GLO	none	close	1	intact	intact	Jul4_fps_avg_aud.mp4	0	0	NaN	NaN	NaN	none	none	NaN	0.533	low
416	6	45	0	self	0.5	NaN	blue	1	down	down	GLO	none	close	1	intact	intact	8b186ca3-65a3-4740-8611-404063ae0ec7_fps_avg_aud.mp4	0	0	NaN	NaN	NaN	none	none	NaN	0.533	low
416	6	46	0	self	0.5	NaN	blue	0	up	up	GLO	none	far	1	intact	intact	c5792f9d-c420-493b-acf2-46528babd08c_fps_avg_aud.mp4	0	0	NaN	NaN	NaN	none	none	NaN	0.533	low
416	6	47	0	self	0.5	NaN	yellow	1	up	up	GLO	none	far	1	intact	intact	959dfee9-c1d0-4643-9cbd-f9e818b706fa_fps_avg_aud.mp4	0	0	NaN	NaN	NaN	none	none	NaN	0.533	low
416	6	48	0	self	0.5	NaN	blue	1	left	left	GLO	none	close	1	intact	intact	15914fca-fb16-47ce-929a-161ca2c1fdf7_fps_avg_aud.mp4	0	0	NaN	NaN	NaN	none	none	NaN	0.533	low
416	6	49	0	self	0.5	NaN	green	1	left	left	GLO	none	close	1	intact	intact	January_2016_(3)_fps_avg_aud.mp4	0	0	NaN	NaN	NaN	none	none	NaN	0.533	low
416	6	50	0	self	0.5	NaN	yellow	0	left	left	GLO	none	close	1	intact	intact	January_2016_(1)_fps_avg_aud.mp4	0	0	NaN	NaN	NaN	none	none	NaN	0.533	low
416	6	51	0	self	0.5	NaN	red	0	down	down	GLO	none	far	1	intact	intact	Nov9_fps_avg_aud.mp4	0	0	NaN	NaN	NaN	none	none	NaN	0.533	low
416	6	52	0	self	0.5	NaN	yellow	1	right	right	GLO	none	far	1	intact	intact	november_5_2015_fps_avg_aud.mp4	0	0	NaN	NaN	NaN	none	none	NaN	0.533	low
416	6	53	0	self	0.5	NaN	red	0	down	down	GLO	none	close	1	intact	intact	Nov11_fps_avg_aud.mp4	0	0	NaN	NaN	NaN	none	none	NaN	0.533	low
416	6	54	0	self	0.5	NaN	blue	0	up	up	GLO	none	far	1	intact	intact	b35409aa-6325-4736-bc0d-526af5b26b83_fps_avg_aud.mp4	0	0	NaN	NaN	NaN	none	none	NaN	0.533	low
416	6	55	0	self	0.5	NaN	green	1	down	down	GLO	none	close	1	intact	intact	cad0ae4f-8fd8-463e-9880-f0c1f9462bac_fps_avg_aud.mp4	0	0	NaN	NaN	NaN	none	none	NaN	0.533	low
416	6	56	0	self	0.5	NaN	yellow	1	right	right	GLO	none	close	1	intact	intact	05a4f0ad-5d14-4bd5-8c2b-7db284b369ce_fps_avg_aud.mp4	0	0	NaN	NaN	NaN	none	none	NaN	0.533	low
416	6	57	0	self	0.5	NaN	green	1	left	left	GLO	none	close	1	intact	intact	54741aa9-fdb7-4546-b60b-078b0914ddd1_fps_avg_aud.mp4	0	0	NaN	NaN	NaN	none	none	NaN	0.533	low
416	6	58	0	self	0.5	NaN	yellow	1	up	up	GLO	none	close	1	intact	intact	Sep19_fps_avg_aud.mp4	0	0	NaN	NaN	NaN	none	none	NaN	0.533	low
416	6	59	0	self	0.5	NaN	red	0	down	down	GLO	none	far	1	intact	intact	Feb11_fps_avg_aud.mp4	0	0	NaN	NaN	NaN	none	none	NaN	0.533	low
416	6	60	0	self	0.5	NaN	green	1	left	left	GLO	none	far	1	intact	intact	c1a7aae7-8c3e-4488-9566-07a14f982e35_fps_avg_aud.mp4	0	0	NaN	NaN	NaN	none	none	NaN	0.533	low
416	6	61	0	self	0.5	NaN	yellow	1	up	up	GLO	none	far	1	intact	intact	Apr1_fps_avg_aud.mp4	0	0	NaN	NaN	NaN	none	none	NaN	0.533	low
416	6	62	0	self	0.5	NaN	blue	1	left	left	GLO	none	far	1	intact	intact	24481237-3ead-4e6a-9a61-be95f34bf5f2_fps_avg_aud.mp4	0	0	NaN	NaN	NaN	none	none	NaN	0.533	low
416	6	63	0	self	0.5	NaN	blue	0	up	up	GLO	none	far	1	intact	intact	Dec31_fps_avg_aud.mp4	0	0	NaN	NaN	NaN	none	none	NaN	0.533	low
416	6	64	0	self	0.5	NaN	green	1	up	up	GLO	none	far	1	intact	intact	April_20015_fps_avg_aud.mp4	0	0	NaN	NaN	NaN	none	none	NaN	0.533	low
416	6	65	0	self	0.5	NaN	red	1	right	right	GLO	none	far	1	intact	intact	June7_fps_avg_aud.mp4	0	0	NaN	NaN	NaN	none	none	NaN	0.533	low
416	6	66	0	self	0.5	NaN	red	1	up	up	GLO	none	far	1	intact	intact	Dec30_fps_avg_aud.mp4	0	0	NaN	NaN	NaN	none	none	NaN	0.533	low
416	6	67	0	self	0.5	NaN	green	1	left	left	GLO	none	close	1	intact	intact	Mar14_fps_avg_aud.mp4	0	0	NaN	NaN	NaN	none	none	NaN	0.533	low
416	6	68	0	self	0.5	NaN	green	1	down	down	GLO	none	close	1	intact	intact	May10_fps_avg_aud.mp4	0	0	NaN	NaN	NaN	none	none	NaN	0.533	low
416	6	69	0	self	0.5	NaN	red	0	down	down	GLO	none	far	1	intact	intact	8ef19348-df54-46b9-9672-f236fb24f042_fps_avg_aud.mp4	0	0	NaN	NaN	NaN	none	none	NaN	0.533	low
416	6	70	0	self	0.5	NaN	yellow	0	left	left	GLO	none	close	1	intact	intact	a5a4b0ce-b05f-41d9-b172-00b13f0d8828_fps_avg_aud.mp4	0	0	NaN	NaN	NaN	none	none	NaN	0.533	low
416	6	71	0	self	0.5	NaN	blue	1	right	right	GLO	none	far	1	intact	intact	08d3f099-f57f-4490-a984-630519ad1c45_fps_avg_aud.mp4	0	0	NaN	NaN	NaN	none	none	NaN	0.533	low
416	6	72	0	self	0.5	NaN	blue	1	down	down	GLO	none	far	1	intact	intact	Aug18_fps_avg_aud.mp4	0	0	NaN	NaN	NaN	none	none	NaN	0.533	low
416	6	73	0	self	0.5	NaN	green	1	up	up	GLO	none	far	1	intact	intact	b1dabac3-204f-4571-b892-69eb87e805d0_fps_avg_aud.mp4	0	0	NaN	NaN	NaN	none	none	NaN	0.533	low
416	6	74	0	self	0.5	NaN	green	1	up	up	GLO	none	far	1	intact	intact	Oct30_fps_avg_aud.mp4	0	0	NaN	NaN	NaN	none	none	NaN	0.533	low
416	6	75	0	self	0.5	NaN	yellow	0	left	left	GLO	none	far	1	intact	intact	7b9f55fa-3ddf-4c84-bb13-2413d53cbf75_fps_avg_aud.mp4	0	0	NaN	NaN	NaN	none	none	NaN	0.533	low
416	6	76	0	self	0.5	NaN	green	0	right	right	GLO	none	close	1	intact	intact	June_2016_(2)_fps_avg_aud.mp4	0	0	NaN	NaN	NaN	none	none	NaN	0.533	low
416	6	77	0	self	0.5	NaN	yellow	1	up	up	GLO	none	far	1	intact	intact	July4_fps_avg_aud.mp4	0	0	NaN	NaN	NaN	none	none	NaN	0.533	low
416	6	78	0	self	0.5	NaN	green	0	right	right	GLO	none	close	1	intact	intact	4492b756-14ac-4694-8c38-fa7503b864e1_fps_avg_aud.mp4	0	0	NaN	NaN	NaN	none	none	NaN	0.533	low
416	6	79	0	self	0.5	NaN	yellow	1	right	right	GLO	none	far	1	intact	intact	October_4_2015_fps_avg_aud.mp4	0	0	NaN	NaN	NaN	none	none	NaN	0.533	low
416	6	80	0	self	0.5	NaN	yellow	0	left	left	GLO	none	close	1	intact	intact	Feb7_fps_avg_aud.mp4	0	0	NaN	NaN	NaN	none	none	NaN	0.533	low
416	6	81	0	self	0.5	NaN	green	0	right	right	GLO	none	close	1	intact	intact	Dec26_fps_avg_aud.mp4	0	0	NaN	NaN	NaN	none	none	NaN	0.533	low
416	6	82	0	self	0.5	NaN	green	0	right	right	GLO	none	far	1	intact	intact	Aug17_fps_avg_aud.mp4	0	0	NaN	NaN	NaN	none	none	NaN	0.533	low
416	6	83	0	self	0.5	NaN	green	0	right	right	GLO	none	close	1	intact	intact	a286ef4d-f7bf-4cc1-b7c2-912b53e8ea4a_fps_avg_aud.mp4	0	0	NaN	NaN	NaN	none	none	NaN	0.533	low
416	6	84	0	self	0.5	NaN	blue	0	up	up	GLO	none	far	1	intact	intact	93875f0f-82c8-483c-b71c-a32b6cf111d2_fps_avg_aud.mp4	0	0	NaN	NaN	NaN	none	none	NaN	0.533	low
416	6	85	0	self	0.5	NaN	green	1	down	down	GLO	none	close	1	intact	intact	149f1481-9792-4892-beba-4137601f26a6_fps_avg_aud.mp4	0	0	NaN	NaN	NaN	none	none	NaN	0.533	low
416	6	86	0	self	0.5	NaN	green	0	right	right	GLO	none	close	1	intact	intact	Jun19_fps_avg_aud.mp4	0	0	NaN	NaN	NaN	none	none	NaN	0.533	low
416	6	87	0	self	0.5	NaN	red	1	left	left	GLO	none	close	1	intact	intact	May25_fps_avg_aud.mp4	0	0	NaN	NaN	NaN	none	none	NaN	0.533	low
416	6	88	0	self	0.5	NaN	yellow	0	left	left	GLO	none	far	1	intact	intact	march_21_2016_fps_avg_aud.mp4	0	0	NaN	NaN	NaN	none	none	NaN	0.533	low
416	6	89	0	self	0.5	NaN	red	0	down	down	GLO	none	close	1	intact	intact	November_14_2016_fps_avg_aud.mp4	0	0	NaN	NaN	NaN	none	none	NaN	0.533	low
416	6	90	0	self	0.5	NaN	blue	0	up	up	GLO	none	far	1	intact	intact	039e9adf-0d8d-4d86-a59c-e7770b0ae616_fps_avg_aud.mp4	0	0	NaN	NaN	NaN	none	none	NaN	0.533	low
416	6	91	0	self	0.5	NaN	blue	0	up	up	GLO	none	far	1	intact	intact	c79830e0-a78a-415b-b7be-95bf79fe1a3a_fps_avg_aud.mp4	0	0	NaN	NaN	NaN	none	none	NaN	0.533	low
416	6	92	0	self	0.5	NaN	yellow	0	left	left	GLO	none	far	1	intact	intact	690b1209-9514-4bd6-9698-3a990594f223_fps_avg_aud.mp4	0	0	NaN	NaN	NaN	none	none	NaN	0.533	low
416	6	93	0	self	0.5	NaN	yellow	1	up	up	GLO	none	far	1	intact	intact	33d05c43-ee7c-4877-9419-344c4009c91e_fps_avg_aud.mp4	0	0	NaN	NaN	NaN	none	none	NaN	0.533	low
416	7	1	0	self	0.5	0.516758	blue	0	up	up	GLO	right	far	1	intact	intact	Jun1_fps_avg_aud.mp4	0	0	1.08131	0	1	up	blue	1	0.543	high
416	7	2	0	self	0.5	0.510729	blue	1	right	right	GLO	right	close	1	intact	intact	8ef19348-df54-46b9-9672-f236fb24f042_fps_avg_aud.mp4	0	0	0.597307	0	1	up	blue	1	0.553	high
416	7	3	0	self	0.5	0.511126	blue	1	down	down	GLO	left	far	1	intact	intact	591cd28e-3b15-449a-b19f-e2e7cabcd7ba_fps_avg_aud.mp4	0	0	0.465127	0	1	up	blue	1	0.563	high
416	7	4	0	self	0.5	0.512961	red	0	down	down	GLO	right	far	1	intact	intact	856001bb-aa8d-41ae-ad3d-fd9ff39c28c0_fps_avg_aud.mp4	0	0	1.19758	0	1	down	red	1	0.573	high
416	7	5	0	self	0.5	0.512719	green	1	up	up	GLO	right	close	1	intact	intact	149f1481-9792-4892-beba-4137601f26a6_fps_avg_aud.mp4	0	0	0.96492	0	1	right	green	1	0.583	high
416	7	6	0	self	0.5	0.511222	blue	0	up	up	GLO	left	far	1	intact	intact	f10531c5-f8e7-4f38-bd6c-28ce29d75760_fps_avg_aud.mp4	0	0	1.24105	0	1	up	blue	1	0.593	high
416	7	7	0	self	0.5	0.511305	green	1	up	up	GLO	left	far	1	intact	intact	315e95e4-d9b0-4497-8992-fa67c8970229_fps_avg_aud.mp4	0	0	0.915538	0	1	right	green	1	0.603	high
416	7	8	0	self	0.5	0.510257	yellow	1	right	right	GLO	right	close	1	intact	intact	483a899a-71a0-49cf-b2ba-f13374d6b0a8_fps_avg_aud.mp4	0	0	0.548347	0	1	left	yellow	1	0.613	high
416	7	9	0	self	0.5	0.511283	green	0	right	right	GLO	right	close	1	intact	intact	10969b38-242c-4207-88e8-6564613d4d88(1)_fps_avg_aud.mp4	0	0	0.858186	0	1	right	green	1	0.623	high
416	7	10	0	self	0.5	0.511355	red	1	right	right	GLO	right	far	1	intact	intact	Mar8_fps_avg_aud.mp4	0	0	0.981291	0	1	down	red	1	0.633	high
416	7	11	0	self	0.5	0.510625	green	1	left	left	GLO	right	close	1	intact	intact	339eedaf-ff90-439f-b68a-797258b27c12_fps_avg_aud.mp4	0	0	0.713358	0	1	right	green	1	0.643	high
416	7	12	0	self	0.5	0.510613	green	0	right	right	GLO	right	close	1	intact	intact	226bfd42-14d0-45a1-82ba-233f4ddec70a_fps_avg_aud.mp4	0	0	0.831146	0	1	right	green	1	0.653	high
416	7	13	0	self	0.5	0.509746	red	0	down	down	GLO	right	close	1	intact	intact	May8_fps_avg_aud.mp4	0	0	0.877532	0	1	down	red	1	0.663	high
416	7	14	0	self	0.5	0.51138	blue	1	down	down	GLO	left	close	1	intact	intact	7720ddf1-f518-43df-bdba-7009c0432e63_fps_avg_aud.mp4	0	0	1.13152	0	1	up	blue	1	0.673	high
416	7	15	0	self	0.5	0.513215	red	1	up	up	GLO	right	close	1	intact	intact	f0c0b40e-f75d-4798-8deb-2b993faeea9f_fps_avg_aud.mp4	0	0	1.48068	0	1	down	red	1	0.683	high
